#
# Results on Wed, 05 Mar 2025 09:49:04 GMT
# USER AGENT: Mozilla/5.0 (Windows NT 10.0; Win64; x64) AppleWebKit/537.36 (KHTML, like Gecko) Chrome/132.0.0.0 YaBrowser/25.2.0.0 Safari/537.36
# Design number was non-random = 1
#
# Columns below this comment are as follows:
# 1. Results reception time.
# 2. MD5 hash of participant's IP address.
# 3. Controller name.
# 4. Order number of item.
# 5. Inner element number.
# 6. Label.
# 7. Latin Square Group.
# 8. PennElementType.
# 9. PennElementName.
# 10. Parameter.
# 11. Value.
# 12. EventTime.
# 13. Comments.
1741168144,ebc4ac0b4a01a4bc6df00c2a37459816,PennController,0,0,welcome,NULL,PennController,0,_Trial_,Start,1741167877665,NULL
1741168144,ebc4ac0b4a01a4bc6df00c2a37459816,PennController,0,0,welcome,NULL,PennController,0,_Trial_,End,1741167935277,NULL
1741168144,ebc4ac0b4a01a4bc6df00c2a37459816,PennController,1,0,mock-trial,NULL,PennController,1,_Trial_,Start,1741167935279,NULL
1741168144,ebc4ac0b4a01a4bc6df00c2a37459816,PennController,1,0,mock-trial,NULL,Text,item_goal,Print,NA,1741167935280,NULL
1741168144,ebc4ac0b4a01a4bc6df00c2a37459816,PennController,1,0,mock-trial,NULL,Scale,judgement,Choice,5,1741167942110,NULL
1741168144,ebc4ac0b4a01a4bc6df00c2a37459816,PennController,1,0,mock-trial,NULL,PennController,1,_Trial_,End,1741167942112,NULL
# 13. group.
# 14. item.
# 15. filler.
# 16. adj.
# 17. Comments.
1741168144,ebc4ac0b4a01a4bc6df00c2a37459816,PennController,17,0,experimental-trial,NULL,PennController,18,_Trial_,Start,1741167942112,B,13,false,ленивая,NULL
1741168144,ebc4ac0b4a01a4bc6df00c2a37459816,PennController,17,0,experimental-trial,NULL,Text,item_goal,Print,NA,1741167942615,B,13,false,ленивая,NULL
1741168144,ebc4ac0b4a01a4bc6df00c2a37459816,PennController,17,0,experimental-trial,NULL,Scale,judgement,Choice,3,1741167964995,B,13,false,ленивая,NULL
1741168144,ebc4ac0b4a01a4bc6df00c2a37459816,PennController,17,0,experimental-trial,NULL,PennController,18,_Trial_,End,1741167964996,B,13,false,ленивая,NULL
1741168144,ebc4ac0b4a01a4bc6df00c2a37459816,PennController,8,0,experimental-trial,NULL,PennController,9,_Trial_,Start,1741167964996,B,4,true,cf,NULL
1741168144,ebc4ac0b4a01a4bc6df00c2a37459816,PennController,8,0,experimental-trial,NULL,Text,item_goal,Print,NA,1741167965500,B,4,true,cf,NULL
1741168144,ebc4ac0b4a01a4bc6df00c2a37459816,PennController,8,0,experimental-trial,NULL,Scale,judgement,Choice,3,1741167976656,B,4,true,cf,NULL
1741168144,ebc4ac0b4a01a4bc6df00c2a37459816,PennController,8,0,experimental-trial,NULL,PennController,9,_Trial_,End,1741167976657,B,4,true,cf,NULL
1741168144,ebc4ac0b4a01a4bc6df00c2a37459816,PennController,15,0,experimental-trial,NULL,PennController,16,_Trial_,Start,1741167976658,B,11,false,тёмная,NULL
1741168144,ebc4ac0b4a01a4bc6df00c2a37459816,PennController,15,0,experimental-trial,NULL,Text,item_goal,Print,NA,1741167977161,B,11,false,тёмная,NULL
1741168144,ebc4ac0b4a01a4bc6df00c2a37459816,PennController,15,0,experimental-trial,NULL,Scale,judgement,Choice,4,1741167985130,B,11,false,тёмная,NULL
1741168144,ebc4ac0b4a01a4bc6df00c2a37459816,PennController,15,0,experimental-trial,NULL,PennController,16,_Trial_,End,1741167985131,B,11,false,тёмная,NULL
1741168144,ebc4ac0b4a01a4bc6df00c2a37459816,PennController,4,0,experimental-trial,NULL,PennController,5,_Trial_,Start,1741167985131,B,000,control,-,NULL
1741168144,ebc4ac0b4a01a4bc6df00c2a37459816,PennController,4,0,experimental-trial,NULL,Text,item_goal,Print,NA,1741167985635,B,000,control,-,NULL
1741168144,ebc4ac0b4a01a4bc6df00c2a37459816,PennController,4,0,experimental-trial,NULL,Scale,judgement,Choice,3,1741167993176,B,000,control,-,NULL
1741168144,ebc4ac0b4a01a4bc6df00c2a37459816,PennController,4,0,experimental-trial,NULL,PennController,5,_Trial_,End,1741167993177,B,000,control,-,NULL
1741168144,ebc4ac0b4a01a4bc6df00c2a37459816,PennController,2,0,experimental-trial,NULL,PennController,3,_Trial_,Start,1741167993178,B,0,control,-,NULL
1741168144,ebc4ac0b4a01a4bc6df00c2a37459816,PennController,2,0,experimental-trial,NULL,Text,item_goal,Print,NA,1741167993683,B,0,control,-,NULL
1741168144,ebc4ac0b4a01a4bc6df00c2a37459816,PennController,2,0,experimental-trial,NULL,Scale,judgement,Choice,1,1741168002035,B,0,control,-,NULL
1741168144,ebc4ac0b4a01a4bc6df00c2a37459816,PennController,2,0,experimental-trial,NULL,PennController,3,_Trial_,End,1741168002035,B,0,control,-,NULL
1741168144,ebc4ac0b4a01a4bc6df00c2a37459816,PennController,11,0,experimental-trial,NULL,PennController,12,_Trial_,Start,1741168002036,B,7,true,-,NULL
1741168144,ebc4ac0b4a01a4bc6df00c2a37459816,PennController,11,0,experimental-trial,NULL,Text,item_goal,Print,NA,1741168002542,B,7,true,-,NULL
1741168144,ebc4ac0b4a01a4bc6df00c2a37459816,PennController,11,0,experimental-trial,NULL,Scale,judgement,Choice,2,1741168019529,B,7,true,-,NULL
1741168144,ebc4ac0b4a01a4bc6df00c2a37459816,PennController,11,0,experimental-trial,NULL,PennController,12,_Trial_,End,1741168019530,B,7,true,-,NULL
1741168144,ebc4ac0b4a01a4bc6df00c2a37459816,PennController,6,0,experimental-trial,NULL,PennController,7,_Trial_,Start,1741168019530,B,2,true,-,NULL
1741168144,ebc4ac0b4a01a4bc6df00c2a37459816,PennController,6,0,experimental-trial,NULL,Text,item_goal,Print,NA,1741168020032,B,2,true,-,NULL
1741168144,ebc4ac0b4a01a4bc6df00c2a37459816,PennController,6,0,experimental-trial,NULL,Scale,judgement,Choice,5,1741168034164,B,2,true,-,NULL
1741168144,ebc4ac0b4a01a4bc6df00c2a37459816,PennController,6,0,experimental-trial,NULL,PennController,7,_Trial_,End,1741168034165,B,2,true,-,NULL
1741168144,ebc4ac0b4a01a4bc6df00c2a37459816,PennController,10,0,experimental-trial,NULL,PennController,11,_Trial_,Start,1741168034165,B,6,true,-,NULL
1741168144,ebc4ac0b4a01a4bc6df00c2a37459816,PennController,10,0,experimental-trial,NULL,Text,item_goal,Print,NA,1741168034671,B,6,true,-,NULL
1741168144,ebc4ac0b4a01a4bc6df00c2a37459816,PennController,10,0,experimental-trial,NULL,Scale,judgement,Choice,5,1741168051250,B,6,true,-,NULL
1741168144,ebc4ac0b4a01a4bc6df00c2a37459816,PennController,10,0,experimental-trial,NULL,PennController,11,_Trial_,End,1741168051251,B,6,true,-,NULL
1741168144,ebc4ac0b4a01a4bc6df00c2a37459816,PennController,16,0,experimental-trial,NULL,PennController,17,_Trial_,Start,1741168051252,B,12,false,уродливая,NULL
1741168144,ebc4ac0b4a01a4bc6df00c2a37459816,PennController,16,0,experimental-trial,NULL,Text,item_goal,Print,NA,1741168051756,B,12,false,уродливая,NULL
1741168144,ebc4ac0b4a01a4bc6df00c2a37459816,PennController,16,0,experimental-trial,NULL,Scale,judgement,Choice,5,1741168064875,B,12,false,уродливая,NULL
1741168144,ebc4ac0b4a01a4bc6df00c2a37459816,PennController,16,0,experimental-trial,NULL,PennController,17,_Trial_,End,1741168064876,B,12,false,уродливая,NULL
1741168144,ebc4ac0b4a01a4bc6df00c2a37459816,PennController,5,0,experimental-trial,NULL,PennController,6,_Trial_,Start,1741168064876,B,1,true,neg,NULL
1741168144,ebc4ac0b4a01a4bc6df00c2a37459816,PennController,5,0,experimental-trial,NULL,Text,item_goal,Print,NA,1741168065381,B,1,true,neg,NULL
1741168144,ebc4ac0b4a01a4bc6df00c2a37459816,PennController,5,0,experimental-trial,NULL,Scale,judgement,Choice,2,1741168080159,B,1,true,neg,NULL
1741168144,ebc4ac0b4a01a4bc6df00c2a37459816,PennController,5,0,experimental-trial,NULL,PennController,6,_Trial_,End,1741168080160,B,1,true,neg,NULL
1741168144,ebc4ac0b4a01a4bc6df00c2a37459816,PennController,14,0,experimental-trial,NULL,PennController,15,_Trial_,Start,1741168080160,B,10,false,скупая,NULL
1741168144,ebc4ac0b4a01a4bc6df00c2a37459816,PennController,14,0,experimental-trial,NULL,Text,item_goal,Print,NA,1741168080662,B,10,false,скупая,NULL
1741168144,ebc4ac0b4a01a4bc6df00c2a37459816,PennController,14,0,experimental-trial,NULL,Scale,judgement,Choice,5,1741168087007,B,10,false,скупая,NULL
1741168144,ebc4ac0b4a01a4bc6df00c2a37459816,PennController,14,0,experimental-trial,NULL,PennController,15,_Trial_,End,1741168087008,B,10,false,скупая,NULL
1741168144,ebc4ac0b4a01a4bc6df00c2a37459816,PennController,9,0,experimental-trial,NULL,PennController,10,_Trial_,Start,1741168087008,B,5,true,ind,NULL
1741168144,ebc4ac0b4a01a4bc6df00c2a37459816,PennController,9,0,experimental-trial,NULL,Text,item_goal,Print,NA,1741168087511,B,5,true,ind,NULL
1741168144,ebc4ac0b4a01a4bc6df00c2a37459816,PennController,9,0,experimental-trial,NULL,Scale,judgement,Choice,3,1741168101148,B,5,true,ind,NULL
1741168144,ebc4ac0b4a01a4bc6df00c2a37459816,PennController,9,0,experimental-trial,NULL,PennController,10,_Trial_,End,1741168101149,B,5,true,ind,NULL
1741168144,ebc4ac0b4a01a4bc6df00c2a37459816,PennController,3,0,experimental-trial,NULL,PennController,4,_Trial_,Start,1741168101149,B,00,control,-,NULL
1741168144,ebc4ac0b4a01a4bc6df00c2a37459816,PennController,3,0,experimental-trial,NULL,Text,item_goal,Print,NA,1741168101653,B,00,control,-,NULL
1741168144,ebc4ac0b4a01a4bc6df00c2a37459816,PennController,3,0,experimental-trial,NULL,Scale,judgement,Choice,5,1741168107195,B,00,control,-,NULL
1741168144,ebc4ac0b4a01a4bc6df00c2a37459816,PennController,3,0,experimental-trial,NULL,PennController,4,_Trial_,End,1741168107196,B,00,control,-,NULL
1741168144,ebc4ac0b4a01a4bc6df00c2a37459816,PennController,12,0,experimental-trial,NULL,PennController,13,_Trial_,Start,1741168107197,B,8,false,чистая,NULL
1741168144,ebc4ac0b4a01a4bc6df00c2a37459816,PennController,12,0,experimental-trial,NULL,Text,item_goal,Print,NA,1741168107701,B,8,false,чистая,NULL
1741168144,ebc4ac0b4a01a4bc6df00c2a37459816,PennController,12,0,experimental-trial,NULL,Scale,judgement,Choice,1,1741168115604,B,8,false,чистая,NULL
1741168144,ebc4ac0b4a01a4bc6df00c2a37459816,PennController,12,0,experimental-trial,NULL,PennController,13,_Trial_,End,1741168115605,B,8,false,чистая,NULL
1741168144,ebc4ac0b4a01a4bc6df00c2a37459816,PennController,13,0,experimental-trial,NULL,PennController,14,_Trial_,Start,1741168115606,B,9,false,горячая,NULL
1741168144,ebc4ac0b4a01a4bc6df00c2a37459816,PennController,13,0,experimental-trial,NULL,Text,item_goal,Print,NA,1741168116108,B,9,false,горячая,NULL
1741168144,ebc4ac0b4a01a4bc6df00c2a37459816,PennController,13,0,experimental-trial,NULL,Scale,judgement,Choice,5,1741168126074,B,9,false,горячая,NULL
1741168144,ebc4ac0b4a01a4bc6df00c2a37459816,PennController,13,0,experimental-trial,NULL,PennController,14,_Trial_,End,1741168126075,B,9,false,горячая,NULL
1741168144,ebc4ac0b4a01a4bc6df00c2a37459816,PennController,7,0,experimental-trial,NULL,PennController,8,_Trial_,Start,1741168126076,B,3,true,-,NULL
1741168144,ebc4ac0b4a01a4bc6df00c2a37459816,PennController,7,0,experimental-trial,NULL,Text,item_goal,Print,NA,1741168126580,B,3,true,-,NULL
1741168144,ebc4ac0b4a01a4bc6df00c2a37459816,PennController,7,0,experimental-trial,NULL,Scale,judgement,Choice,5,1741168136429,B,3,true,-,NULL
1741168144,ebc4ac0b4a01a4bc6df00c2a37459816,PennController,7,0,experimental-trial,NULL,PennController,8,_Trial_,End,1741168136430,B,3,true,-,NULL
#
# Results on Wed, 05 Mar 2025 10:23:40 GMT
# USER AGENT: Mozilla/5.0 (Windows NT 10.0; Win64; x64) AppleWebKit/537.36 (KHTML, like Gecko) Chrome/133.0.0.0 Safari/537.36
# Design number was non-random = 2
#
# Columns below this comment are as follows:
# 1. Results reception time.
# 2. MD5 hash of participant's IP address.
# 3. Controller name.
# 4. Order number of item.
# 5. Inner element number.
# 6. Label.
# 7. Latin Square Group.
# 8. PennElementType.
# 9. PennElementName.
# 10. Parameter.
# 11. Value.
# 12. EventTime.
# 13. Comments.
1741170220,da524be690cc1a9d24cd82f0cef008b6,PennController,0,0,welcome,NULL,PennController,0,_Trial_,Start,1741168509058,NULL
1741170220,da524be690cc1a9d24cd82f0cef008b6,PennController,0,0,welcome,NULL,PennController,0,_Trial_,End,1741168553727,NULL
1741170220,da524be690cc1a9d24cd82f0cef008b6,PennController,1,0,mock-trial,NULL,PennController,1,_Trial_,Start,1741168553728,NULL
1741170220,da524be690cc1a9d24cd82f0cef008b6,PennController,1,0,mock-trial,NULL,Text,item_goal,Print,NA,1741168553728,NULL
1741170220,da524be690cc1a9d24cd82f0cef008b6,PennController,1,0,mock-trial,NULL,Scale,judgement,Choice,5,1741168573398,NULL
1741170220,da524be690cc1a9d24cd82f0cef008b6,PennController,1,0,mock-trial,NULL,PennController,1,_Trial_,End,1741168573399,NULL
# 13. group.
# 14. item.
# 15. filler.
# 16. adj.
# 17. Comments.
1741170220,da524be690cc1a9d24cd82f0cef008b6,PennController,11,0,experimental-trial,NULL,PennController,12,_Trial_,Start,1741168573400,C,7,true,-,NULL
1741170220,da524be690cc1a9d24cd82f0cef008b6,PennController,11,0,experimental-trial,NULL,Text,item_goal,Print,NA,1741168573902,C,7,true,-,NULL
1741170220,da524be690cc1a9d24cd82f0cef008b6,PennController,11,0,experimental-trial,NULL,Scale,judgement,Choice,2,1741169895534,C,7,true,-,NULL
1741170220,da524be690cc1a9d24cd82f0cef008b6,PennController,11,0,experimental-trial,NULL,PennController,12,_Trial_,End,1741169895536,C,7,true,-,NULL
1741170220,da524be690cc1a9d24cd82f0cef008b6,PennController,9,0,experimental-trial,NULL,PennController,10,_Trial_,Start,1741169895537,C,5,true,ind,NULL
1741170220,da524be690cc1a9d24cd82f0cef008b6,PennController,9,0,experimental-trial,NULL,Text,item_goal,Print,NA,1741169896038,C,5,true,ind,NULL
1741170220,da524be690cc1a9d24cd82f0cef008b6,PennController,9,0,experimental-trial,NULL,Scale,judgement,Choice,3,1741169924947,C,5,true,ind,NULL
1741170220,da524be690cc1a9d24cd82f0cef008b6,PennController,9,0,experimental-trial,NULL,PennController,10,_Trial_,End,1741169924948,C,5,true,ind,NULL
1741170220,da524be690cc1a9d24cd82f0cef008b6,PennController,10,0,experimental-trial,NULL,PennController,11,_Trial_,Start,1741169924949,C,6,true,-,NULL
1741170220,da524be690cc1a9d24cd82f0cef008b6,PennController,10,0,experimental-trial,NULL,Text,item_goal,Print,NA,1741169925453,C,6,true,-,NULL
1741170220,da524be690cc1a9d24cd82f0cef008b6,PennController,10,0,experimental-trial,NULL,Scale,judgement,Choice,4,1741169943070,C,6,true,-,NULL
1741170220,da524be690cc1a9d24cd82f0cef008b6,PennController,10,0,experimental-trial,NULL,PennController,11,_Trial_,End,1741169943071,C,6,true,-,NULL
1741170220,da524be690cc1a9d24cd82f0cef008b6,PennController,7,0,experimental-trial,NULL,PennController,8,_Trial_,Start,1741169943071,C,3,true,-,NULL
1741170220,da524be690cc1a9d24cd82f0cef008b6,PennController,7,0,experimental-trial,NULL,Text,item_goal,Print,NA,1741169943575,C,3,true,-,NULL
1741170220,da524be690cc1a9d24cd82f0cef008b6,PennController,7,0,experimental-trial,NULL,Scale,judgement,Choice,5,1741170030552,C,3,true,-,NULL
1741170220,da524be690cc1a9d24cd82f0cef008b6,PennController,7,0,experimental-trial,NULL,PennController,8,_Trial_,End,1741170030553,C,3,true,-,NULL
1741170220,da524be690cc1a9d24cd82f0cef008b6,PennController,8,0,experimental-trial,NULL,PennController,9,_Trial_,Start,1741170030555,C,4,true,cf,NULL
1741170220,da524be690cc1a9d24cd82f0cef008b6,PennController,8,0,experimental-trial,NULL,Text,item_goal,Print,NA,1741170031069,C,4,true,cf,NULL
1741170220,da524be690cc1a9d24cd82f0cef008b6,PennController,8,0,experimental-trial,NULL,Scale,judgement,Choice,1,1741170056770,C,4,true,cf,NULL
1741170220,da524be690cc1a9d24cd82f0cef008b6,PennController,8,0,experimental-trial,NULL,PennController,9,_Trial_,End,1741170056771,C,4,true,cf,NULL
1741170220,da524be690cc1a9d24cd82f0cef008b6,PennController,4,0,experimental-trial,NULL,PennController,5,_Trial_,Start,1741170056771,C,000,control,-,NULL
1741170220,da524be690cc1a9d24cd82f0cef008b6,PennController,4,0,experimental-trial,NULL,Text,item_goal,Print,NA,1741170057274,C,000,control,-,NULL
1741170220,da524be690cc1a9d24cd82f0cef008b6,PennController,4,0,experimental-trial,NULL,Scale,judgement,Choice,5,1741170064870,C,000,control,-,NULL
1741170220,da524be690cc1a9d24cd82f0cef008b6,PennController,4,0,experimental-trial,NULL,PennController,5,_Trial_,End,1741170064870,C,000,control,-,NULL
1741170220,da524be690cc1a9d24cd82f0cef008b6,PennController,14,0,experimental-trial,NULL,PennController,15,_Trial_,Start,1741170064871,C,16,false,умная,NULL
1741170220,da524be690cc1a9d24cd82f0cef008b6,PennController,14,0,experimental-trial,NULL,Text,item_goal,Print,NA,1741170065374,C,16,false,умная,NULL
1741170220,da524be690cc1a9d24cd82f0cef008b6,PennController,14,0,experimental-trial,NULL,Scale,judgement,Choice,3,1741170078416,C,16,false,умная,NULL
1741170220,da524be690cc1a9d24cd82f0cef008b6,PennController,14,0,experimental-trial,NULL,PennController,15,_Trial_,End,1741170078416,C,16,false,умная,NULL
1741170220,da524be690cc1a9d24cd82f0cef008b6,PennController,15,0,experimental-trial,NULL,PennController,16,_Trial_,Start,1741170078417,C,17,false,трусливая,NULL
1741170220,da524be690cc1a9d24cd82f0cef008b6,PennController,15,0,experimental-trial,NULL,Text,item_goal,Print,NA,1741170078918,C,17,false,трусливая,NULL
1741170220,da524be690cc1a9d24cd82f0cef008b6,PennController,15,0,experimental-trial,NULL,Scale,judgement,Choice,2,1741170086322,C,17,false,трусливая,NULL
1741170220,da524be690cc1a9d24cd82f0cef008b6,PennController,15,0,experimental-trial,NULL,PennController,16,_Trial_,End,1741170086323,C,17,false,трусливая,NULL
1741170220,da524be690cc1a9d24cd82f0cef008b6,PennController,17,0,experimental-trial,NULL,PennController,18,_Trial_,Start,1741170086323,C,19,false,низкая,NULL
1741170220,da524be690cc1a9d24cd82f0cef008b6,PennController,17,0,experimental-trial,NULL,Text,item_goal,Print,NA,1741170086824,C,19,false,низкая,NULL
1741170220,da524be690cc1a9d24cd82f0cef008b6,PennController,17,0,experimental-trial,NULL,Scale,judgement,Choice,2,1741170104512,C,19,false,низкая,NULL
1741170220,da524be690cc1a9d24cd82f0cef008b6,PennController,17,0,experimental-trial,NULL,PennController,18,_Trial_,End,1741170104513,C,19,false,низкая,NULL
1741170220,da524be690cc1a9d24cd82f0cef008b6,PennController,16,0,experimental-trial,NULL,PennController,17,_Trial_,Start,1741170104513,C,18,false,лёгкая,NULL
1741170220,da524be690cc1a9d24cd82f0cef008b6,PennController,16,0,experimental-trial,NULL,Text,item_goal,Print,NA,1741170105015,C,18,false,лёгкая,NULL
1741170220,da524be690cc1a9d24cd82f0cef008b6,PennController,16,0,experimental-trial,NULL,Scale,judgement,Choice,3,1741170117943,C,18,false,лёгкая,NULL
1741170220,da524be690cc1a9d24cd82f0cef008b6,PennController,16,0,experimental-trial,NULL,PennController,17,_Trial_,End,1741170117943,C,18,false,лёгкая,NULL
1741170220,da524be690cc1a9d24cd82f0cef008b6,PennController,6,0,experimental-trial,NULL,PennController,7,_Trial_,Start,1741170117944,C,2,true,-,NULL
1741170220,da524be690cc1a9d24cd82f0cef008b6,PennController,6,0,experimental-trial,NULL,Text,item_goal,Print,NA,1741170118447,C,2,true,-,NULL
1741170220,da524be690cc1a9d24cd82f0cef008b6,PennController,6,0,experimental-trial,NULL,Scale,judgement,Choice,5,1741170128091,C,2,true,-,NULL
1741170220,da524be690cc1a9d24cd82f0cef008b6,PennController,6,0,experimental-trial,NULL,PennController,7,_Trial_,End,1741170128092,C,2,true,-,NULL
1741170220,da524be690cc1a9d24cd82f0cef008b6,PennController,3,0,experimental-trial,NULL,PennController,4,_Trial_,Start,1741170128092,C,00,control,-,NULL
1741170220,da524be690cc1a9d24cd82f0cef008b6,PennController,3,0,experimental-trial,NULL,Text,item_goal,Print,NA,1741170128595,C,00,control,-,NULL
1741170220,da524be690cc1a9d24cd82f0cef008b6,PennController,3,0,experimental-trial,NULL,Scale,judgement,Choice,5,1741170140350,C,00,control,-,NULL
1741170220,da524be690cc1a9d24cd82f0cef008b6,PennController,3,0,experimental-trial,NULL,PennController,4,_Trial_,End,1741170140351,C,00,control,-,NULL
1741170220,da524be690cc1a9d24cd82f0cef008b6,PennController,13,0,experimental-trial,NULL,PennController,14,_Trial_,Start,1741170140352,C,15,false,добрая,NULL
1741170220,da524be690cc1a9d24cd82f0cef008b6,PennController,13,0,experimental-trial,NULL,Text,item_goal,Print,NA,1741170140854,C,15,false,добрая,NULL
1741170220,da524be690cc1a9d24cd82f0cef008b6,PennController,13,0,experimental-trial,NULL,Scale,judgement,Choice,2,1741170193464,C,15,false,добрая,NULL
1741170220,da524be690cc1a9d24cd82f0cef008b6,PennController,13,0,experimental-trial,NULL,PennController,14,_Trial_,End,1741170193465,C,15,false,добрая,NULL
1741170220,da524be690cc1a9d24cd82f0cef008b6,PennController,5,0,experimental-trial,NULL,PennController,6,_Trial_,Start,1741170193465,C,1,true,pos,NULL
1741170220,da524be690cc1a9d24cd82f0cef008b6,PennController,5,0,experimental-trial,NULL,Text,item_goal,Print,NA,1741170193969,C,1,true,pos,NULL
1741170220,da524be690cc1a9d24cd82f0cef008b6,PennController,5,0,experimental-trial,NULL,Scale,judgement,Choice,5,1741170198209,C,1,true,pos,NULL
1741170220,da524be690cc1a9d24cd82f0cef008b6,PennController,5,0,experimental-trial,NULL,PennController,6,_Trial_,End,1741170198210,C,1,true,pos,NULL
1741170220,da524be690cc1a9d24cd82f0cef008b6,PennController,2,0,experimental-trial,NULL,PennController,3,_Trial_,Start,1741170198210,C,0,control,-,NULL
1741170220,da524be690cc1a9d24cd82f0cef008b6,PennController,2,0,experimental-trial,NULL,Text,item_goal,Print,NA,1741170198711,C,0,control,-,NULL
1741170220,da524be690cc1a9d24cd82f0cef008b6,PennController,2,0,experimental-trial,NULL,Scale,judgement,Choice,1,1741170212640,C,0,control,-,NULL
1741170220,da524be690cc1a9d24cd82f0cef008b6,PennController,2,0,experimental-trial,NULL,PennController,3,_Trial_,End,1741170212640,C,0,control,-,NULL
1741170220,da524be690cc1a9d24cd82f0cef008b6,PennController,12,0,experimental-trial,NULL,PennController,13,_Trial_,Start,1741170212641,C,14,false,быстрая,NULL
1741170220,da524be690cc1a9d24cd82f0cef008b6,PennController,12,0,experimental-trial,NULL,Text,item_goal,Print,NA,1741170213142,C,14,false,быстрая,NULL
1741170220,da524be690cc1a9d24cd82f0cef008b6,PennController,12,0,experimental-trial,NULL,Scale,judgement,Choice,2,1741170221280,C,14,false,быстрая,NULL
1741170220,da524be690cc1a9d24cd82f0cef008b6,PennController,12,0,experimental-trial,NULL,PennController,13,_Trial_,End,1741170221281,C,14,false,быстрая,NULL
#
# Results on Wed, 05 Mar 2025 10:58:27 GMT
# USER AGENT: Mozilla/5.0 (iPhone; CPU iPhone OS 18_3_1 like Mac OS X) AppleWebKit/605.1.15 (KHTML, like Gecko) Version/18.0 YaBrowser/25.2.5.489.10 SA/3 Mobile/15E148 Safari/604.1
# Design number was non-random = 3
#
# Columns below this comment are as follows:
# 1. Results reception time.
# 2. MD5 hash of participant's IP address.
# 3. Controller name.
# 4. Order number of item.
# 5. Inner element number.
# 6. Label.
# 7. Latin Square Group.
# 8. PennElementType.
# 9. PennElementName.
# 10. Parameter.
# 11. Value.
# 12. EventTime.
# 13. Comments.
1741172307,8a2eca6c1eb867650aba0eed16836d08,PennController,0,0,welcome,NULL,PennController,0,_Trial_,Start,1741172104815,NULL
1741172307,8a2eca6c1eb867650aba0eed16836d08,PennController,0,0,welcome,NULL,PennController,0,_Trial_,End,1741172130575,NULL
1741172307,8a2eca6c1eb867650aba0eed16836d08,PennController,1,0,mock-trial,NULL,PennController,1,_Trial_,Start,1741172130579,NULL
1741172307,8a2eca6c1eb867650aba0eed16836d08,PennController,1,0,mock-trial,NULL,Text,item_goal,Print,NA,1741172130583,NULL
1741172307,8a2eca6c1eb867650aba0eed16836d08,PennController,1,0,mock-trial,NULL,Scale,judgement,Choice,5,1741172139418,NULL
1741172307,8a2eca6c1eb867650aba0eed16836d08,PennController,1,0,mock-trial,NULL,PennController,1,_Trial_,End,1741172139426,NULL
# 13. group.
# 14. item.
# 15. filler.
# 16. adj.
# 17. Comments.
1741172307,8a2eca6c1eb867650aba0eed16836d08,PennController,2,0,experimental-trial,NULL,PennController,3,_Trial_,Start,1741172139429,D,0,control,-,NULL
1741172307,8a2eca6c1eb867650aba0eed16836d08,PennController,2,0,experimental-trial,NULL,Text,item_goal,Print,NA,1741172139938,D,0,control,-,NULL
1741172307,8a2eca6c1eb867650aba0eed16836d08,PennController,2,0,experimental-trial,NULL,Scale,judgement,Choice,1,1741172148337,D,0,control,-,NULL
1741172307,8a2eca6c1eb867650aba0eed16836d08,PennController,2,0,experimental-trial,NULL,PennController,3,_Trial_,End,1741172148343,D,0,control,-,NULL
1741172307,8a2eca6c1eb867650aba0eed16836d08,PennController,14,0,experimental-trial,NULL,PennController,15,_Trial_,Start,1741172148346,D,16,false,тупая,NULL
1741172307,8a2eca6c1eb867650aba0eed16836d08,PennController,14,0,experimental-trial,NULL,Text,item_goal,Print,NA,1741172148853,D,16,false,тупая,NULL
1741172307,8a2eca6c1eb867650aba0eed16836d08,PennController,14,0,experimental-trial,NULL,Scale,judgement,Choice,4,1741172162531,D,16,false,тупая,NULL
1741172307,8a2eca6c1eb867650aba0eed16836d08,PennController,14,0,experimental-trial,NULL,PennController,15,_Trial_,End,1741172162535,D,16,false,тупая,NULL
1741172307,8a2eca6c1eb867650aba0eed16836d08,PennController,3,0,experimental-trial,NULL,PennController,4,_Trial_,Start,1741172162538,D,00,control,-,NULL
1741172307,8a2eca6c1eb867650aba0eed16836d08,PennController,3,0,experimental-trial,NULL,Text,item_goal,Print,NA,1741172163045,D,00,control,-,NULL
1741172307,8a2eca6c1eb867650aba0eed16836d08,PennController,3,0,experimental-trial,NULL,Scale,judgement,Choice,5,1741172169337,D,00,control,-,NULL
1741172307,8a2eca6c1eb867650aba0eed16836d08,PennController,3,0,experimental-trial,NULL,PennController,4,_Trial_,End,1741172169342,D,00,control,-,NULL
1741172307,8a2eca6c1eb867650aba0eed16836d08,PennController,4,0,experimental-trial,NULL,PennController,5,_Trial_,Start,1741172169344,D,000,control,-,NULL
1741172307,8a2eca6c1eb867650aba0eed16836d08,PennController,4,0,experimental-trial,NULL,Text,item_goal,Print,NA,1741172169853,D,000,control,-,NULL
1741172307,8a2eca6c1eb867650aba0eed16836d08,PennController,4,0,experimental-trial,NULL,Scale,judgement,Choice,5,1741172176126,D,000,control,-,NULL
1741172307,8a2eca6c1eb867650aba0eed16836d08,PennController,4,0,experimental-trial,NULL,PennController,5,_Trial_,End,1741172176130,D,000,control,-,NULL
1741172307,8a2eca6c1eb867650aba0eed16836d08,PennController,10,0,experimental-trial,NULL,PennController,11,_Trial_,Start,1741172176132,D,6,true,-,NULL
1741172307,8a2eca6c1eb867650aba0eed16836d08,PennController,10,0,experimental-trial,NULL,Text,item_goal,Print,NA,1741172176639,D,6,true,-,NULL
1741172307,8a2eca6c1eb867650aba0eed16836d08,PennController,10,0,experimental-trial,NULL,Scale,judgement,Choice,3,1741172189590,D,6,true,-,NULL
1741172307,8a2eca6c1eb867650aba0eed16836d08,PennController,10,0,experimental-trial,NULL,PennController,11,_Trial_,End,1741172189595,D,6,true,-,NULL
1741172307,8a2eca6c1eb867650aba0eed16836d08,PennController,7,0,experimental-trial,NULL,PennController,8,_Trial_,Start,1741172189599,D,3,true,-,NULL
1741172307,8a2eca6c1eb867650aba0eed16836d08,PennController,7,0,experimental-trial,NULL,Text,item_goal,Print,NA,1741172190104,D,3,true,-,NULL
1741172307,8a2eca6c1eb867650aba0eed16836d08,PennController,7,0,experimental-trial,NULL,Scale,judgement,Choice,1,1741172198110,D,3,true,-,NULL
1741172307,8a2eca6c1eb867650aba0eed16836d08,PennController,7,0,experimental-trial,NULL,PennController,8,_Trial_,End,1741172198115,D,3,true,-,NULL
1741172307,8a2eca6c1eb867650aba0eed16836d08,PennController,5,0,experimental-trial,NULL,PennController,6,_Trial_,Start,1741172198117,D,1,true,pos,NULL
1741172307,8a2eca6c1eb867650aba0eed16836d08,PennController,5,0,experimental-trial,NULL,Text,item_goal,Print,NA,1741172198624,D,1,true,pos,NULL
1741172307,8a2eca6c1eb867650aba0eed16836d08,PennController,5,0,experimental-trial,NULL,Scale,judgement,Choice,5,1741172202154,D,1,true,pos,NULL
1741172307,8a2eca6c1eb867650aba0eed16836d08,PennController,5,0,experimental-trial,NULL,PennController,6,_Trial_,End,1741172202159,D,1,true,pos,NULL
1741172307,8a2eca6c1eb867650aba0eed16836d08,PennController,9,0,experimental-trial,NULL,PennController,10,_Trial_,Start,1741172202161,D,5,true,ind,NULL
1741172307,8a2eca6c1eb867650aba0eed16836d08,PennController,9,0,experimental-trial,NULL,Text,item_goal,Print,NA,1741172202666,D,5,true,ind,NULL
1741172307,8a2eca6c1eb867650aba0eed16836d08,PennController,9,0,experimental-trial,NULL,Scale,judgement,Choice,4,1741172219230,D,5,true,ind,NULL
1741172307,8a2eca6c1eb867650aba0eed16836d08,PennController,9,0,experimental-trial,NULL,PennController,10,_Trial_,End,1741172219235,D,5,true,ind,NULL
1741172307,8a2eca6c1eb867650aba0eed16836d08,PennController,11,0,experimental-trial,NULL,PennController,12,_Trial_,Start,1741172219237,D,7,true,-,NULL
1741172307,8a2eca6c1eb867650aba0eed16836d08,PennController,11,0,experimental-trial,NULL,Text,item_goal,Print,NA,1741172219743,D,7,true,-,NULL
1741172307,8a2eca6c1eb867650aba0eed16836d08,PennController,11,0,experimental-trial,NULL,Scale,judgement,Choice,3,1741172231812,D,7,true,-,NULL
1741172307,8a2eca6c1eb867650aba0eed16836d08,PennController,11,0,experimental-trial,NULL,PennController,12,_Trial_,End,1741172231816,D,7,true,-,NULL
1741172307,8a2eca6c1eb867650aba0eed16836d08,PennController,6,0,experimental-trial,NULL,PennController,7,_Trial_,Start,1741172231818,D,2,true,-,NULL
1741172307,8a2eca6c1eb867650aba0eed16836d08,PennController,6,0,experimental-trial,NULL,Text,item_goal,Print,NA,1741172232325,D,2,true,-,NULL
1741172307,8a2eca6c1eb867650aba0eed16836d08,PennController,6,0,experimental-trial,NULL,Scale,judgement,Choice,5,1741172237471,D,2,true,-,NULL
1741172307,8a2eca6c1eb867650aba0eed16836d08,PennController,6,0,experimental-trial,NULL,PennController,7,_Trial_,End,1741172237475,D,2,true,-,NULL
1741172307,8a2eca6c1eb867650aba0eed16836d08,PennController,13,0,experimental-trial,NULL,PennController,14,_Trial_,Start,1741172237477,D,15,false,злая,NULL
1741172307,8a2eca6c1eb867650aba0eed16836d08,PennController,13,0,experimental-trial,NULL,Text,item_goal,Print,NA,1741172237981,D,15,false,злая,NULL
1741172307,8a2eca6c1eb867650aba0eed16836d08,PennController,13,0,experimental-trial,NULL,Scale,judgement,Choice,3,1741172249003,D,15,false,злая,NULL
1741172307,8a2eca6c1eb867650aba0eed16836d08,PennController,13,0,experimental-trial,NULL,PennController,14,_Trial_,End,1741172249007,D,15,false,злая,NULL
1741172307,8a2eca6c1eb867650aba0eed16836d08,PennController,16,0,experimental-trial,NULL,PennController,17,_Trial_,Start,1741172249010,D,18,false,тяжёлая,NULL
1741172307,8a2eca6c1eb867650aba0eed16836d08,PennController,16,0,experimental-trial,NULL,Text,item_goal,Print,NA,1741172249519,D,18,false,тяжёлая,NULL
1741172307,8a2eca6c1eb867650aba0eed16836d08,PennController,16,0,experimental-trial,NULL,Scale,judgement,Choice,1,1741172263939,D,18,false,тяжёлая,NULL
1741172307,8a2eca6c1eb867650aba0eed16836d08,PennController,16,0,experimental-trial,NULL,PennController,17,_Trial_,End,1741172263944,D,18,false,тяжёлая,NULL
1741172307,8a2eca6c1eb867650aba0eed16836d08,PennController,12,0,experimental-trial,NULL,PennController,13,_Trial_,Start,1741172263946,D,14,false,медленная,NULL
1741172307,8a2eca6c1eb867650aba0eed16836d08,PennController,12,0,experimental-trial,NULL,Text,item_goal,Print,NA,1741172264450,D,14,false,медленная,NULL
1741172307,8a2eca6c1eb867650aba0eed16836d08,PennController,12,0,experimental-trial,NULL,Scale,judgement,Choice,2,1741172278775,D,14,false,медленная,NULL
1741172307,8a2eca6c1eb867650aba0eed16836d08,PennController,12,0,experimental-trial,NULL,PennController,13,_Trial_,End,1741172278780,D,14,false,медленная,NULL
1741172307,8a2eca6c1eb867650aba0eed16836d08,PennController,8,0,experimental-trial,NULL,PennController,9,_Trial_,Start,1741172278783,D,4,true,cf,NULL
1741172307,8a2eca6c1eb867650aba0eed16836d08,PennController,8,0,experimental-trial,NULL,Text,item_goal,Print,NA,1741172279286,D,4,true,cf,NULL
1741172307,8a2eca6c1eb867650aba0eed16836d08,PennController,8,0,experimental-trial,NULL,Scale,judgement,Choice,1,1741172289824,D,4,true,cf,NULL
1741172307,8a2eca6c1eb867650aba0eed16836d08,PennController,8,0,experimental-trial,NULL,PennController,9,_Trial_,End,1741172289828,D,4,true,cf,NULL
1741172307,8a2eca6c1eb867650aba0eed16836d08,PennController,17,0,experimental-trial,NULL,PennController,18,_Trial_,Start,1741172289831,D,19,false,высокая,NULL
1741172307,8a2eca6c1eb867650aba0eed16836d08,PennController,17,0,experimental-trial,NULL,Text,item_goal,Print,NA,1741172290337,D,19,false,высокая,NULL
1741172307,8a2eca6c1eb867650aba0eed16836d08,PennController,17,0,experimental-trial,NULL,Scale,judgement,Choice,2,1741172298576,D,19,false,высокая,NULL
1741172307,8a2eca6c1eb867650aba0eed16836d08,PennController,17,0,experimental-trial,NULL,PennController,18,_Trial_,End,1741172298581,D,19,false,высокая,NULL
1741172307,8a2eca6c1eb867650aba0eed16836d08,PennController,15,0,experimental-trial,NULL,PennController,16,_Trial_,Start,1741172298584,D,17,false,храбрая,NULL
1741172307,8a2eca6c1eb867650aba0eed16836d08,PennController,15,0,experimental-trial,NULL,Text,item_goal,Print,NA,1741172299087,D,17,false,храбрая,NULL
1741172307,8a2eca6c1eb867650aba0eed16836d08,PennController,15,0,experimental-trial,NULL,Scale,judgement,Choice,2,1741172307541,D,17,false,храбрая,NULL
1741172307,8a2eca6c1eb867650aba0eed16836d08,PennController,15,0,experimental-trial,NULL,PennController,16,_Trial_,End,1741172307544,D,17,false,храбрая,NULL
#
# Results on Wed, 05 Mar 2025 11:23:50 GMT
# USER AGENT: Mozilla/5.0 (Windows NT 10.0; Win64; x64) AppleWebKit/537.36 (KHTML, like Gecko) Chrome/133.0.0.0 Safari/537.36
# Design number was non-random = 4
#
# Columns below this comment are as follows:
# 1. Results reception time.
# 2. MD5 hash of participant's IP address.
# 3. Controller name.
# 4. Order number of item.
# 5. Inner element number.
# 6. Label.
# 7. Latin Square Group.
# 8. PennElementType.
# 9. PennElementName.
# 10. Parameter.
# 11. Value.
# 12. EventTime.
# 13. Comments.
1741173830,dd80f204ccb2e9fae474cd0b06f687e3,PennController,0,0,welcome,NULL,PennController,0,_Trial_,Start,1741173712290,NULL
1741173830,dd80f204ccb2e9fae474cd0b06f687e3,PennController,0,0,welcome,NULL,PennController,0,_Trial_,End,1741173716051,NULL
1741173830,dd80f204ccb2e9fae474cd0b06f687e3,PennController,1,0,mock-trial,NULL,PennController,1,_Trial_,Start,1741173716053,NULL
1741173830,dd80f204ccb2e9fae474cd0b06f687e3,PennController,1,0,mock-trial,NULL,Text,item_goal,Print,NA,1741173716054,NULL
1741173830,dd80f204ccb2e9fae474cd0b06f687e3,PennController,1,0,mock-trial,NULL,Scale,judgement,Choice,5,1741173718675,NULL
1741173830,dd80f204ccb2e9fae474cd0b06f687e3,PennController,1,0,mock-trial,NULL,PennController,1,_Trial_,End,1741173718676,NULL
# 13. group.
# 14. item.
# 15. filler.
# 16. adj.
# 17. Comments.
1741173830,dd80f204ccb2e9fae474cd0b06f687e3,PennController,13,0,experimental-trial,NULL,PennController,14,_Trial_,Start,1741173718677,A,9,false,холодная,NULL
1741173830,dd80f204ccb2e9fae474cd0b06f687e3,PennController,13,0,experimental-trial,NULL,Text,item_goal,Print,NA,1741173719183,A,9,false,холодная,NULL
1741173830,dd80f204ccb2e9fae474cd0b06f687e3,PennController,13,0,experimental-trial,NULL,Scale,judgement,Choice,3,1741173729861,A,9,false,холодная,NULL
1741173830,dd80f204ccb2e9fae474cd0b06f687e3,PennController,13,0,experimental-trial,NULL,PennController,14,_Trial_,End,1741173729862,A,9,false,холодная,NULL
1741173830,dd80f204ccb2e9fae474cd0b06f687e3,PennController,11,0,experimental-trial,NULL,PennController,12,_Trial_,Start,1741173729862,A,7,true,-,NULL
1741173830,dd80f204ccb2e9fae474cd0b06f687e3,PennController,11,0,experimental-trial,NULL,Text,item_goal,Print,NA,1741173730366,A,7,true,-,NULL
1741173830,dd80f204ccb2e9fae474cd0b06f687e3,PennController,11,0,experimental-trial,NULL,Scale,judgement,Choice,3,1741173738580,A,7,true,-,NULL
1741173830,dd80f204ccb2e9fae474cd0b06f687e3,PennController,11,0,experimental-trial,NULL,PennController,12,_Trial_,End,1741173738581,A,7,true,-,NULL
1741173830,dd80f204ccb2e9fae474cd0b06f687e3,PennController,10,0,experimental-trial,NULL,PennController,11,_Trial_,Start,1741173738582,A,6,true,-,NULL
1741173830,dd80f204ccb2e9fae474cd0b06f687e3,PennController,10,0,experimental-trial,NULL,Text,item_goal,Print,NA,1741173739088,A,6,true,-,NULL
1741173830,dd80f204ccb2e9fae474cd0b06f687e3,PennController,10,0,experimental-trial,NULL,Scale,judgement,Choice,4,1741173748661,A,6,true,-,NULL
1741173830,dd80f204ccb2e9fae474cd0b06f687e3,PennController,10,0,experimental-trial,NULL,PennController,11,_Trial_,End,1741173748661,A,6,true,-,NULL
1741173830,dd80f204ccb2e9fae474cd0b06f687e3,PennController,9,0,experimental-trial,NULL,PennController,10,_Trial_,Start,1741173748662,A,5,true,ind,NULL
1741173830,dd80f204ccb2e9fae474cd0b06f687e3,PennController,9,0,experimental-trial,NULL,Text,item_goal,Print,NA,1741173749170,A,5,true,ind,NULL
1741173830,dd80f204ccb2e9fae474cd0b06f687e3,PennController,9,0,experimental-trial,NULL,Scale,judgement,Choice,4,1741173769800,A,5,true,ind,NULL
1741173830,dd80f204ccb2e9fae474cd0b06f687e3,PennController,9,0,experimental-trial,NULL,PennController,10,_Trial_,End,1741173769800,A,5,true,ind,NULL
1741173830,dd80f204ccb2e9fae474cd0b06f687e3,PennController,15,0,experimental-trial,NULL,PennController,16,_Trial_,Start,1741173769801,A,11,false,светлая,NULL
1741173830,dd80f204ccb2e9fae474cd0b06f687e3,PennController,15,0,experimental-trial,NULL,Text,item_goal,Print,NA,1741173770302,A,11,false,светлая,NULL
1741173830,dd80f204ccb2e9fae474cd0b06f687e3,PennController,15,0,experimental-trial,NULL,Scale,judgement,Choice,3,1741173774746,A,11,false,светлая,NULL
1741173830,dd80f204ccb2e9fae474cd0b06f687e3,PennController,15,0,experimental-trial,NULL,PennController,16,_Trial_,End,1741173774746,A,11,false,светлая,NULL
1741173830,dd80f204ccb2e9fae474cd0b06f687e3,PennController,7,0,experimental-trial,NULL,PennController,8,_Trial_,Start,1741173774747,A,3,true,-,NULL
1741173830,dd80f204ccb2e9fae474cd0b06f687e3,PennController,7,0,experimental-trial,NULL,Text,item_goal,Print,NA,1741173775253,A,3,true,-,NULL
1741173830,dd80f204ccb2e9fae474cd0b06f687e3,PennController,7,0,experimental-trial,NULL,Scale,judgement,Choice,3,1741173780056,A,3,true,-,NULL
1741173830,dd80f204ccb2e9fae474cd0b06f687e3,PennController,7,0,experimental-trial,NULL,PennController,8,_Trial_,End,1741173780057,A,3,true,-,NULL
1741173830,dd80f204ccb2e9fae474cd0b06f687e3,PennController,16,0,experimental-trial,NULL,PennController,17,_Trial_,Start,1741173780057,A,12,false,красивая,NULL
1741173830,dd80f204ccb2e9fae474cd0b06f687e3,PennController,16,0,experimental-trial,NULL,Text,item_goal,Print,NA,1741173780560,A,12,false,красивая,NULL
1741173830,dd80f204ccb2e9fae474cd0b06f687e3,PennController,16,0,experimental-trial,NULL,Scale,judgement,Choice,3,1741173784244,A,12,false,красивая,NULL
1741173830,dd80f204ccb2e9fae474cd0b06f687e3,PennController,16,0,experimental-trial,NULL,PennController,17,_Trial_,End,1741173784244,A,12,false,красивая,NULL
1741173830,dd80f204ccb2e9fae474cd0b06f687e3,PennController,2,0,experimental-trial,NULL,PennController,3,_Trial_,Start,1741173784245,A,0,control,-,NULL
1741173830,dd80f204ccb2e9fae474cd0b06f687e3,PennController,2,0,experimental-trial,NULL,Text,item_goal,Print,NA,1741173784750,A,0,control,-,NULL
1741173830,dd80f204ccb2e9fae474cd0b06f687e3,PennController,2,0,experimental-trial,NULL,Scale,judgement,Choice,1,1741173791164,A,0,control,-,NULL
1741173830,dd80f204ccb2e9fae474cd0b06f687e3,PennController,2,0,experimental-trial,NULL,PennController,3,_Trial_,End,1741173791165,A,0,control,-,NULL
1741173830,dd80f204ccb2e9fae474cd0b06f687e3,PennController,17,0,experimental-trial,NULL,PennController,18,_Trial_,Start,1741173791166,A,13,false,трудолюбивая,NULL
1741173830,dd80f204ccb2e9fae474cd0b06f687e3,PennController,17,0,experimental-trial,NULL,Text,item_goal,Print,NA,1741173791672,A,13,false,трудолюбивая,NULL
1741173830,dd80f204ccb2e9fae474cd0b06f687e3,PennController,17,0,experimental-trial,NULL,Scale,judgement,Choice,3,1741173794839,A,13,false,трудолюбивая,NULL
1741173830,dd80f204ccb2e9fae474cd0b06f687e3,PennController,17,0,experimental-trial,NULL,PennController,18,_Trial_,End,1741173794840,A,13,false,трудолюбивая,NULL
1741173830,dd80f204ccb2e9fae474cd0b06f687e3,PennController,6,0,experimental-trial,NULL,PennController,7,_Trial_,Start,1741173794840,A,2,true,-,NULL
1741173830,dd80f204ccb2e9fae474cd0b06f687e3,PennController,6,0,experimental-trial,NULL,Text,item_goal,Print,NA,1741173795349,A,2,true,-,NULL
1741173830,dd80f204ccb2e9fae474cd0b06f687e3,PennController,6,0,experimental-trial,NULL,Scale,judgement,Choice,5,1741173800449,A,2,true,-,NULL
1741173830,dd80f204ccb2e9fae474cd0b06f687e3,PennController,6,0,experimental-trial,NULL,PennController,7,_Trial_,End,1741173800450,A,2,true,-,NULL
1741173830,dd80f204ccb2e9fae474cd0b06f687e3,PennController,14,0,experimental-trial,NULL,PennController,15,_Trial_,Start,1741173800451,A,10,false,щедрая,NULL
1741173830,dd80f204ccb2e9fae474cd0b06f687e3,PennController,14,0,experimental-trial,NULL,Text,item_goal,Print,NA,1741173800955,A,10,false,щедрая,NULL
1741173830,dd80f204ccb2e9fae474cd0b06f687e3,PennController,14,0,experimental-trial,NULL,Scale,judgement,Choice,3,1741173804884,A,10,false,щедрая,NULL
1741173830,dd80f204ccb2e9fae474cd0b06f687e3,PennController,14,0,experimental-trial,NULL,PennController,15,_Trial_,End,1741173804885,A,10,false,щедрая,NULL
1741173830,dd80f204ccb2e9fae474cd0b06f687e3,PennController,12,0,experimental-trial,NULL,PennController,13,_Trial_,Start,1741173804885,A,8,false,грязная,NULL
1741173830,dd80f204ccb2e9fae474cd0b06f687e3,PennController,12,0,experimental-trial,NULL,Text,item_goal,Print,NA,1741173805387,A,8,false,грязная,NULL
1741173830,dd80f204ccb2e9fae474cd0b06f687e3,PennController,12,0,experimental-trial,NULL,Scale,judgement,Choice,3,1741173812074,A,8,false,грязная,NULL
1741173830,dd80f204ccb2e9fae474cd0b06f687e3,PennController,12,0,experimental-trial,NULL,PennController,13,_Trial_,End,1741173812075,A,8,false,грязная,NULL
1741173830,dd80f204ccb2e9fae474cd0b06f687e3,PennController,5,0,experimental-trial,NULL,PennController,6,_Trial_,Start,1741173812075,A,1,true,neg,NULL
1741173830,dd80f204ccb2e9fae474cd0b06f687e3,PennController,5,0,experimental-trial,NULL,Text,item_goal,Print,NA,1741173812579,A,1,true,neg,NULL
1741173830,dd80f204ccb2e9fae474cd0b06f687e3,PennController,5,0,experimental-trial,NULL,Scale,judgement,Choice,1,1741173816628,A,1,true,neg,NULL
1741173830,dd80f204ccb2e9fae474cd0b06f687e3,PennController,5,0,experimental-trial,NULL,PennController,6,_Trial_,End,1741173816629,A,1,true,neg,NULL
1741173830,dd80f204ccb2e9fae474cd0b06f687e3,PennController,4,0,experimental-trial,NULL,PennController,5,_Trial_,Start,1741173816629,A,000,control,-,NULL
1741173830,dd80f204ccb2e9fae474cd0b06f687e3,PennController,4,0,experimental-trial,NULL,Text,item_goal,Print,NA,1741173817133,A,000,control,-,NULL
1741173830,dd80f204ccb2e9fae474cd0b06f687e3,PennController,4,0,experimental-trial,NULL,Scale,judgement,Choice,5,1741173819372,A,000,control,-,NULL
1741173830,dd80f204ccb2e9fae474cd0b06f687e3,PennController,4,0,experimental-trial,NULL,PennController,5,_Trial_,End,1741173819372,A,000,control,-,NULL
1741173830,dd80f204ccb2e9fae474cd0b06f687e3,PennController,8,0,experimental-trial,NULL,PennController,9,_Trial_,Start,1741173819373,A,4,true,cf,NULL
1741173830,dd80f204ccb2e9fae474cd0b06f687e3,PennController,8,0,experimental-trial,NULL,Text,item_goal,Print,NA,1741173819880,A,4,true,cf,NULL
1741173830,dd80f204ccb2e9fae474cd0b06f687e3,PennController,8,0,experimental-trial,NULL,Scale,judgement,Choice,2,1741173826339,A,4,true,cf,NULL
1741173830,dd80f204ccb2e9fae474cd0b06f687e3,PennController,8,0,experimental-trial,NULL,PennController,9,_Trial_,End,1741173826340,A,4,true,cf,NULL
1741173830,dd80f204ccb2e9fae474cd0b06f687e3,PennController,3,0,experimental-trial,NULL,PennController,4,_Trial_,Start,1741173826340,A,00,control,-,NULL
1741173830,dd80f204ccb2e9fae474cd0b06f687e3,PennController,3,0,experimental-trial,NULL,Text,item_goal,Print,NA,1741173826845,A,00,control,-,NULL
1741173830,dd80f204ccb2e9fae474cd0b06f687e3,PennController,3,0,experimental-trial,NULL,Scale,judgement,Choice,5,1741173830247,A,00,control,-,NULL
1741173830,dd80f204ccb2e9fae474cd0b06f687e3,PennController,3,0,experimental-trial,NULL,PennController,4,_Trial_,End,1741173830248,A,00,control,-,NULL
#
# Results on Wed, 05 Mar 2025 12:26:58 GMT
# USER AGENT: Mozilla/5.0 (Windows NT 10.0; Win64; x64) AppleWebKit/537.36 (KHTML, like Gecko) Chrome/133.0.0.0 Safari/537.36
# Design number was non-random = 5
#
# Columns below this comment are as follows:
# 1. Results reception time.
# 2. MD5 hash of participant's IP address.
# 3. Controller name.
# 4. Order number of item.
# 5. Inner element number.
# 6. Label.
# 7. Latin Square Group.
# 8. PennElementType.
# 9. PennElementName.
# 10. Parameter.
# 11. Value.
# 12. EventTime.
# 13. Comments.
1741177618,b0881a30233a66bbaeed42178fe8e37b,PennController,0,0,welcome,NULL,PennController,0,_Trial_,Start,1741177466239,NULL
1741177618,b0881a30233a66bbaeed42178fe8e37b,PennController,0,0,welcome,NULL,PennController,0,_Trial_,End,1741177505608,NULL
1741177618,b0881a30233a66bbaeed42178fe8e37b,PennController,1,0,mock-trial,NULL,PennController,1,_Trial_,Start,1741177505611,NULL
1741177618,b0881a30233a66bbaeed42178fe8e37b,PennController,1,0,mock-trial,NULL,Text,item_goal,Print,NA,1741177505613,NULL
1741177618,b0881a30233a66bbaeed42178fe8e37b,PennController,1,0,mock-trial,NULL,Scale,judgement,Choice,5,1741177511703,NULL
1741177618,b0881a30233a66bbaeed42178fe8e37b,PennController,1,0,mock-trial,NULL,PennController,1,_Trial_,End,1741177511706,NULL
# 13. group.
# 14. item.
# 15. filler.
# 16. adj.
# 17. Comments.
1741177618,b0881a30233a66bbaeed42178fe8e37b,PennController,8,0,experimental-trial,NULL,PennController,9,_Trial_,Start,1741177511708,B,4,true,cf,NULL
1741177618,b0881a30233a66bbaeed42178fe8e37b,PennController,8,0,experimental-trial,NULL,Text,item_goal,Print,NA,1741177512216,B,4,true,cf,NULL
1741177618,b0881a30233a66bbaeed42178fe8e37b,PennController,8,0,experimental-trial,NULL,Scale,judgement,Choice,1,1741177518068,B,4,true,cf,NULL
1741177618,b0881a30233a66bbaeed42178fe8e37b,PennController,8,0,experimental-trial,NULL,PennController,9,_Trial_,End,1741177518070,B,4,true,cf,NULL
1741177618,b0881a30233a66bbaeed42178fe8e37b,PennController,4,0,experimental-trial,NULL,PennController,5,_Trial_,Start,1741177518072,B,000,control,-,NULL
1741177618,b0881a30233a66bbaeed42178fe8e37b,PennController,4,0,experimental-trial,NULL,Text,item_goal,Print,NA,1741177518583,B,000,control,-,NULL
1741177618,b0881a30233a66bbaeed42178fe8e37b,PennController,4,0,experimental-trial,NULL,Scale,judgement,Choice,5,1741177523451,B,000,control,-,NULL
1741177618,b0881a30233a66bbaeed42178fe8e37b,PennController,4,0,experimental-trial,NULL,PennController,5,_Trial_,End,1741177523453,B,000,control,-,NULL
1741177618,b0881a30233a66bbaeed42178fe8e37b,PennController,7,0,experimental-trial,NULL,PennController,8,_Trial_,Start,1741177523454,B,3,true,-,NULL
1741177618,b0881a30233a66bbaeed42178fe8e37b,PennController,7,0,experimental-trial,NULL,Text,item_goal,Print,NA,1741177523960,B,3,true,-,NULL
1741177618,b0881a30233a66bbaeed42178fe8e37b,PennController,7,0,experimental-trial,NULL,Scale,judgement,Choice,3,1741177534164,B,3,true,-,NULL
1741177618,b0881a30233a66bbaeed42178fe8e37b,PennController,7,0,experimental-trial,NULL,PennController,8,_Trial_,End,1741177534166,B,3,true,-,NULL
1741177618,b0881a30233a66bbaeed42178fe8e37b,PennController,14,0,experimental-trial,NULL,PennController,15,_Trial_,Start,1741177534168,B,10,false,скупая,NULL
1741177618,b0881a30233a66bbaeed42178fe8e37b,PennController,14,0,experimental-trial,NULL,Text,item_goal,Print,NA,1741177534672,B,10,false,скупая,NULL
1741177618,b0881a30233a66bbaeed42178fe8e37b,PennController,14,0,experimental-trial,NULL,Scale,judgement,Choice,1,1741177542007,B,10,false,скупая,NULL
1741177618,b0881a30233a66bbaeed42178fe8e37b,PennController,14,0,experimental-trial,NULL,PennController,15,_Trial_,End,1741177542009,B,10,false,скупая,NULL
1741177618,b0881a30233a66bbaeed42178fe8e37b,PennController,10,0,experimental-trial,NULL,PennController,11,_Trial_,Start,1741177542011,B,6,true,-,NULL
1741177618,b0881a30233a66bbaeed42178fe8e37b,PennController,10,0,experimental-trial,NULL,Text,item_goal,Print,NA,1741177542517,B,6,true,-,NULL
1741177618,b0881a30233a66bbaeed42178fe8e37b,PennController,10,0,experimental-trial,NULL,Scale,judgement,Choice,1,1741177550101,B,6,true,-,NULL
1741177618,b0881a30233a66bbaeed42178fe8e37b,PennController,10,0,experimental-trial,NULL,PennController,11,_Trial_,End,1741177550104,B,6,true,-,NULL
1741177618,b0881a30233a66bbaeed42178fe8e37b,PennController,11,0,experimental-trial,NULL,PennController,12,_Trial_,Start,1741177550105,B,7,true,-,NULL
1741177618,b0881a30233a66bbaeed42178fe8e37b,PennController,11,0,experimental-trial,NULL,Text,item_goal,Print,NA,1741177550613,B,7,true,-,NULL
1741177618,b0881a30233a66bbaeed42178fe8e37b,PennController,11,0,experimental-trial,NULL,Scale,judgement,Choice,5,1741177556853,B,7,true,-,NULL
1741177618,b0881a30233a66bbaeed42178fe8e37b,PennController,11,0,experimental-trial,NULL,PennController,12,_Trial_,End,1741177556855,B,7,true,-,NULL
1741177618,b0881a30233a66bbaeed42178fe8e37b,PennController,16,0,experimental-trial,NULL,PennController,17,_Trial_,Start,1741177556858,B,12,false,уродливая,NULL
1741177618,b0881a30233a66bbaeed42178fe8e37b,PennController,16,0,experimental-trial,NULL,Text,item_goal,Print,NA,1741177557359,B,12,false,уродливая,NULL
1741177618,b0881a30233a66bbaeed42178fe8e37b,PennController,16,0,experimental-trial,NULL,Scale,judgement,Choice,1,1741177563167,B,12,false,уродливая,NULL
1741177618,b0881a30233a66bbaeed42178fe8e37b,PennController,16,0,experimental-trial,NULL,PennController,17,_Trial_,End,1741177563169,B,12,false,уродливая,NULL
1741177618,b0881a30233a66bbaeed42178fe8e37b,PennController,15,0,experimental-trial,NULL,PennController,16,_Trial_,Start,1741177563171,B,11,false,тёмная,NULL
1741177618,b0881a30233a66bbaeed42178fe8e37b,PennController,15,0,experimental-trial,NULL,Text,item_goal,Print,NA,1741177563672,B,11,false,тёмная,NULL
1741177618,b0881a30233a66bbaeed42178fe8e37b,PennController,15,0,experimental-trial,NULL,Scale,judgement,Choice,1,1741177566634,B,11,false,тёмная,NULL
1741177618,b0881a30233a66bbaeed42178fe8e37b,PennController,15,0,experimental-trial,NULL,PennController,16,_Trial_,End,1741177566635,B,11,false,тёмная,NULL
1741177618,b0881a30233a66bbaeed42178fe8e37b,PennController,17,0,experimental-trial,NULL,PennController,18,_Trial_,Start,1741177566637,B,13,false,ленивая,NULL
1741177618,b0881a30233a66bbaeed42178fe8e37b,PennController,17,0,experimental-trial,NULL,Text,item_goal,Print,NA,1741177567141,B,13,false,ленивая,NULL
1741177618,b0881a30233a66bbaeed42178fe8e37b,PennController,17,0,experimental-trial,NULL,Scale,judgement,Choice,1,1741177571981,B,13,false,ленивая,NULL
1741177618,b0881a30233a66bbaeed42178fe8e37b,PennController,17,0,experimental-trial,NULL,PennController,18,_Trial_,End,1741177571983,B,13,false,ленивая,NULL
1741177618,b0881a30233a66bbaeed42178fe8e37b,PennController,3,0,experimental-trial,NULL,PennController,4,_Trial_,Start,1741177571985,B,00,control,-,NULL
1741177618,b0881a30233a66bbaeed42178fe8e37b,PennController,3,0,experimental-trial,NULL,Text,item_goal,Print,NA,1741177572490,B,00,control,-,NULL
1741177618,b0881a30233a66bbaeed42178fe8e37b,PennController,3,0,experimental-trial,NULL,Scale,judgement,Choice,5,1741177576781,B,00,control,-,NULL
1741177618,b0881a30233a66bbaeed42178fe8e37b,PennController,3,0,experimental-trial,NULL,PennController,4,_Trial_,End,1741177576783,B,00,control,-,NULL
1741177618,b0881a30233a66bbaeed42178fe8e37b,PennController,12,0,experimental-trial,NULL,PennController,13,_Trial_,Start,1741177576786,B,8,false,чистая,NULL
1741177618,b0881a30233a66bbaeed42178fe8e37b,PennController,12,0,experimental-trial,NULL,Text,item_goal,Print,NA,1741177577295,B,8,false,чистая,NULL
1741177618,b0881a30233a66bbaeed42178fe8e37b,PennController,12,0,experimental-trial,NULL,Scale,judgement,Choice,1,1741177582429,B,8,false,чистая,NULL
1741177618,b0881a30233a66bbaeed42178fe8e37b,PennController,12,0,experimental-trial,NULL,PennController,13,_Trial_,End,1741177582431,B,8,false,чистая,NULL
1741177618,b0881a30233a66bbaeed42178fe8e37b,PennController,2,0,experimental-trial,NULL,PennController,3,_Trial_,Start,1741177582432,B,0,control,-,NULL
1741177618,b0881a30233a66bbaeed42178fe8e37b,PennController,2,0,experimental-trial,NULL,Text,item_goal,Print,NA,1741177582938,B,0,control,-,NULL
1741177618,b0881a30233a66bbaeed42178fe8e37b,PennController,2,0,experimental-trial,NULL,Scale,judgement,Choice,1,1741177590758,B,0,control,-,NULL
1741177618,b0881a30233a66bbaeed42178fe8e37b,PennController,2,0,experimental-trial,NULL,PennController,3,_Trial_,End,1741177590760,B,0,control,-,NULL
1741177618,b0881a30233a66bbaeed42178fe8e37b,PennController,9,0,experimental-trial,NULL,PennController,10,_Trial_,Start,1741177590761,B,5,true,ind,NULL
1741177618,b0881a30233a66bbaeed42178fe8e37b,PennController,9,0,experimental-trial,NULL,Text,item_goal,Print,NA,1741177591266,B,5,true,ind,NULL
1741177618,b0881a30233a66bbaeed42178fe8e37b,PennController,9,0,experimental-trial,NULL,Scale,judgement,Choice,2,1741177600921,B,5,true,ind,NULL
1741177618,b0881a30233a66bbaeed42178fe8e37b,PennController,9,0,experimental-trial,NULL,PennController,10,_Trial_,End,1741177600922,B,5,true,ind,NULL
1741177618,b0881a30233a66bbaeed42178fe8e37b,PennController,13,0,experimental-trial,NULL,PennController,14,_Trial_,Start,1741177600924,B,9,false,горячая,NULL
1741177618,b0881a30233a66bbaeed42178fe8e37b,PennController,13,0,experimental-trial,NULL,Text,item_goal,Print,NA,1741177601428,B,9,false,горячая,NULL
1741177618,b0881a30233a66bbaeed42178fe8e37b,PennController,13,0,experimental-trial,NULL,Scale,judgement,Choice,2,1741177607602,B,9,false,горячая,NULL
1741177618,b0881a30233a66bbaeed42178fe8e37b,PennController,13,0,experimental-trial,NULL,PennController,14,_Trial_,End,1741177607604,B,9,false,горячая,NULL
1741177618,b0881a30233a66bbaeed42178fe8e37b,PennController,5,0,experimental-trial,NULL,PennController,6,_Trial_,Start,1741177607605,B,1,true,neg,NULL
1741177618,b0881a30233a66bbaeed42178fe8e37b,PennController,5,0,experimental-trial,NULL,Text,item_goal,Print,NA,1741177608108,B,1,true,neg,NULL
1741177618,b0881a30233a66bbaeed42178fe8e37b,PennController,5,0,experimental-trial,NULL,Scale,judgement,Choice,2,1741177612451,B,1,true,neg,NULL
1741177618,b0881a30233a66bbaeed42178fe8e37b,PennController,5,0,experimental-trial,NULL,PennController,6,_Trial_,End,1741177612453,B,1,true,neg,NULL
1741177618,b0881a30233a66bbaeed42178fe8e37b,PennController,6,0,experimental-trial,NULL,PennController,7,_Trial_,Start,1741177612454,B,2,true,-,NULL
1741177618,b0881a30233a66bbaeed42178fe8e37b,PennController,6,0,experimental-trial,NULL,Text,item_goal,Print,NA,1741177612958,B,2,true,-,NULL
1741177618,b0881a30233a66bbaeed42178fe8e37b,PennController,6,0,experimental-trial,NULL,Scale,judgement,Choice,2,1741177619115,B,2,true,-,NULL
1741177618,b0881a30233a66bbaeed42178fe8e37b,PennController,6,0,experimental-trial,NULL,PennController,7,_Trial_,End,1741177619116,B,2,true,-,NULL
#
# Results on Wed, 05 Mar 2025 12:27:24 GMT
# USER AGENT: Mozilla/5.0 (Windows NT 10.0; Win64; x64) AppleWebKit/537.36 (KHTML, like Gecko) Chrome/133.0.0.0 Safari/537.36
# Design number was non-random = 5
#
# Columns below this comment are as follows:
# 1. Results reception time.
# 2. MD5 hash of participant's IP address.
# 3. Controller name.
# 4. Order number of item.
# 5. Inner element number.
# 6. Label.
# 7. Latin Square Group.
# 8. PennElementType.
# 9. PennElementName.
# 10. Parameter.
# 11. Value.
# 12. EventTime.
# 13. Comments.
1741177644,75651598b2a23a801427eb01845d85f2,PennController,0,0,welcome,NULL,PennController,0,_Trial_,Start,1741177482986,NULL
1741177644,75651598b2a23a801427eb01845d85f2,PennController,0,0,welcome,NULL,PennController,0,_Trial_,End,1741177489511,NULL
1741177644,75651598b2a23a801427eb01845d85f2,PennController,1,0,mock-trial,NULL,PennController,1,_Trial_,Start,1741177489512,NULL
1741177644,75651598b2a23a801427eb01845d85f2,PennController,1,0,mock-trial,NULL,Text,item_goal,Print,NA,1741177489513,NULL
1741177644,75651598b2a23a801427eb01845d85f2,PennController,1,0,mock-trial,NULL,Scale,judgement,Choice,5,1741177494367,NULL
1741177644,75651598b2a23a801427eb01845d85f2,PennController,1,0,mock-trial,NULL,PennController,1,_Trial_,End,1741177494368,NULL
# 13. group.
# 14. item.
# 15. filler.
# 16. adj.
# 17. Comments.
1741177644,75651598b2a23a801427eb01845d85f2,PennController,7,0,experimental-trial,NULL,PennController,8,_Trial_,Start,1741177494368,B,3,true,-,NULL
1741177644,75651598b2a23a801427eb01845d85f2,PennController,7,0,experimental-trial,NULL,Text,item_goal,Print,NA,1741177494873,B,3,true,-,NULL
1741177644,75651598b2a23a801427eb01845d85f2,PennController,7,0,experimental-trial,NULL,Scale,judgement,Choice,5,1741177505639,B,3,true,-,NULL
1741177644,75651598b2a23a801427eb01845d85f2,PennController,7,0,experimental-trial,NULL,PennController,8,_Trial_,End,1741177505639,B,3,true,-,NULL
1741177644,75651598b2a23a801427eb01845d85f2,PennController,14,0,experimental-trial,NULL,PennController,15,_Trial_,Start,1741177505640,B,10,false,скупая,NULL
1741177644,75651598b2a23a801427eb01845d85f2,PennController,14,0,experimental-trial,NULL,Text,item_goal,Print,NA,1741177506143,B,10,false,скупая,NULL
1741177644,75651598b2a23a801427eb01845d85f2,PennController,14,0,experimental-trial,NULL,Scale,judgement,Choice,3,1741177517774,B,10,false,скупая,NULL
1741177644,75651598b2a23a801427eb01845d85f2,PennController,14,0,experimental-trial,NULL,PennController,15,_Trial_,End,1741177517775,B,10,false,скупая,NULL
1741177644,75651598b2a23a801427eb01845d85f2,PennController,16,0,experimental-trial,NULL,PennController,17,_Trial_,Start,1741177517776,B,12,false,уродливая,NULL
1741177644,75651598b2a23a801427eb01845d85f2,PennController,16,0,experimental-trial,NULL,Text,item_goal,Print,NA,1741177518280,B,12,false,уродливая,NULL
1741177644,75651598b2a23a801427eb01845d85f2,PennController,16,0,experimental-trial,NULL,Scale,judgement,Choice,3,1741177522214,B,12,false,уродливая,NULL
1741177644,75651598b2a23a801427eb01845d85f2,PennController,16,0,experimental-trial,NULL,PennController,17,_Trial_,End,1741177522215,B,12,false,уродливая,NULL
1741177644,75651598b2a23a801427eb01845d85f2,PennController,15,0,experimental-trial,NULL,PennController,16,_Trial_,Start,1741177522215,B,11,false,тёмная,NULL
1741177644,75651598b2a23a801427eb01845d85f2,PennController,15,0,experimental-trial,NULL,Text,item_goal,Print,NA,1741177522719,B,11,false,тёмная,NULL
1741177644,75651598b2a23a801427eb01845d85f2,PennController,15,0,experimental-trial,NULL,Scale,judgement,Choice,3,1741177525622,B,11,false,тёмная,NULL
1741177644,75651598b2a23a801427eb01845d85f2,PennController,15,0,experimental-trial,NULL,PennController,16,_Trial_,End,1741177525623,B,11,false,тёмная,NULL
1741177644,75651598b2a23a801427eb01845d85f2,PennController,11,0,experimental-trial,NULL,PennController,12,_Trial_,Start,1741177525623,B,7,true,-,NULL
1741177644,75651598b2a23a801427eb01845d85f2,PennController,11,0,experimental-trial,NULL,Text,item_goal,Print,NA,1741177526127,B,7,true,-,NULL
1741177644,75651598b2a23a801427eb01845d85f2,PennController,11,0,experimental-trial,NULL,Scale,judgement,Choice,2,1741177536118,B,7,true,-,NULL
1741177644,75651598b2a23a801427eb01845d85f2,PennController,11,0,experimental-trial,NULL,PennController,12,_Trial_,End,1741177536119,B,7,true,-,NULL
1741177644,75651598b2a23a801427eb01845d85f2,PennController,9,0,experimental-trial,NULL,PennController,10,_Trial_,Start,1741177536119,B,5,true,ind,NULL
1741177644,75651598b2a23a801427eb01845d85f2,PennController,9,0,experimental-trial,NULL,Text,item_goal,Print,NA,1741177536621,B,5,true,ind,NULL
1741177644,75651598b2a23a801427eb01845d85f2,PennController,9,0,experimental-trial,NULL,Scale,judgement,Choice,3,1741177546102,B,5,true,ind,NULL
1741177644,75651598b2a23a801427eb01845d85f2,PennController,9,0,experimental-trial,NULL,PennController,10,_Trial_,End,1741177546103,B,5,true,ind,NULL
1741177644,75651598b2a23a801427eb01845d85f2,PennController,2,0,experimental-trial,NULL,PennController,3,_Trial_,Start,1741177546103,B,0,control,-,NULL
1741177644,75651598b2a23a801427eb01845d85f2,PennController,2,0,experimental-trial,NULL,Text,item_goal,Print,NA,1741177546607,B,0,control,-,NULL
1741177644,75651598b2a23a801427eb01845d85f2,PennController,2,0,experimental-trial,NULL,Scale,judgement,Choice,1,1741177556422,B,0,control,-,NULL
1741177644,75651598b2a23a801427eb01845d85f2,PennController,2,0,experimental-trial,NULL,PennController,3,_Trial_,End,1741177556423,B,0,control,-,NULL
1741177644,75651598b2a23a801427eb01845d85f2,PennController,6,0,experimental-trial,NULL,PennController,7,_Trial_,Start,1741177556423,B,2,true,-,NULL
1741177644,75651598b2a23a801427eb01845d85f2,PennController,6,0,experimental-trial,NULL,Text,item_goal,Print,NA,1741177556929,B,2,true,-,NULL
1741177644,75651598b2a23a801427eb01845d85f2,PennController,6,0,experimental-trial,NULL,Scale,judgement,Choice,5,1741177561694,B,2,true,-,NULL
1741177644,75651598b2a23a801427eb01845d85f2,PennController,6,0,experimental-trial,NULL,PennController,7,_Trial_,End,1741177561695,B,2,true,-,NULL
1741177644,75651598b2a23a801427eb01845d85f2,PennController,3,0,experimental-trial,NULL,PennController,4,_Trial_,Start,1741177561695,B,00,control,-,NULL
1741177644,75651598b2a23a801427eb01845d85f2,PennController,3,0,experimental-trial,NULL,Text,item_goal,Print,NA,1741177562196,B,00,control,-,NULL
1741177644,75651598b2a23a801427eb01845d85f2,PennController,3,0,experimental-trial,NULL,Scale,judgement,Choice,5,1741177581326,B,00,control,-,NULL
1741177644,75651598b2a23a801427eb01845d85f2,PennController,3,0,experimental-trial,NULL,PennController,4,_Trial_,End,1741177581327,B,00,control,-,NULL
1741177644,75651598b2a23a801427eb01845d85f2,PennController,8,0,experimental-trial,NULL,PennController,9,_Trial_,Start,1741177581327,B,4,true,cf,NULL
1741177644,75651598b2a23a801427eb01845d85f2,PennController,8,0,experimental-trial,NULL,Text,item_goal,Print,NA,1741177581829,B,4,true,cf,NULL
1741177644,75651598b2a23a801427eb01845d85f2,PennController,8,0,experimental-trial,NULL,Scale,judgement,Choice,3,1741177593454,B,4,true,cf,NULL
1741177644,75651598b2a23a801427eb01845d85f2,PennController,8,0,experimental-trial,NULL,PennController,9,_Trial_,End,1741177593455,B,4,true,cf,NULL
1741177644,75651598b2a23a801427eb01845d85f2,PennController,12,0,experimental-trial,NULL,PennController,13,_Trial_,Start,1741177593455,B,8,false,чистая,NULL
1741177644,75651598b2a23a801427eb01845d85f2,PennController,12,0,experimental-trial,NULL,Text,item_goal,Print,NA,1741177593959,B,8,false,чистая,NULL
1741177644,75651598b2a23a801427eb01845d85f2,PennController,12,0,experimental-trial,NULL,Scale,judgement,Choice,3,1741177603182,B,8,false,чистая,NULL
1741177644,75651598b2a23a801427eb01845d85f2,PennController,12,0,experimental-trial,NULL,PennController,13,_Trial_,End,1741177603183,B,8,false,чистая,NULL
1741177644,75651598b2a23a801427eb01845d85f2,PennController,4,0,experimental-trial,NULL,PennController,5,_Trial_,Start,1741177603183,B,000,control,-,NULL
1741177644,75651598b2a23a801427eb01845d85f2,PennController,4,0,experimental-trial,NULL,Text,item_goal,Print,NA,1741177603688,B,000,control,-,NULL
1741177644,75651598b2a23a801427eb01845d85f2,PennController,4,0,experimental-trial,NULL,Scale,judgement,Choice,5,1741177609974,B,000,control,-,NULL
1741177644,75651598b2a23a801427eb01845d85f2,PennController,4,0,experimental-trial,NULL,PennController,5,_Trial_,End,1741177609975,B,000,control,-,NULL
1741177644,75651598b2a23a801427eb01845d85f2,PennController,13,0,experimental-trial,NULL,PennController,14,_Trial_,Start,1741177609975,B,9,false,горячая,NULL
1741177644,75651598b2a23a801427eb01845d85f2,PennController,13,0,experimental-trial,NULL,Text,item_goal,Print,NA,1741177610478,B,9,false,горячая,NULL
1741177644,75651598b2a23a801427eb01845d85f2,PennController,13,0,experimental-trial,NULL,Scale,judgement,Choice,3,1741177613991,B,9,false,горячая,NULL
1741177644,75651598b2a23a801427eb01845d85f2,PennController,13,0,experimental-trial,NULL,PennController,14,_Trial_,End,1741177613991,B,9,false,горячая,NULL
1741177644,75651598b2a23a801427eb01845d85f2,PennController,17,0,experimental-trial,NULL,PennController,18,_Trial_,Start,1741177613991,B,13,false,ленивая,NULL
1741177644,75651598b2a23a801427eb01845d85f2,PennController,17,0,experimental-trial,NULL,Text,item_goal,Print,NA,1741177614493,B,13,false,ленивая,NULL
1741177644,75651598b2a23a801427eb01845d85f2,PennController,17,0,experimental-trial,NULL,Scale,judgement,Choice,3,1741177622479,B,13,false,ленивая,NULL
1741177644,75651598b2a23a801427eb01845d85f2,PennController,17,0,experimental-trial,NULL,PennController,18,_Trial_,End,1741177622480,B,13,false,ленивая,NULL
1741177644,75651598b2a23a801427eb01845d85f2,PennController,5,0,experimental-trial,NULL,PennController,6,_Trial_,Start,1741177622480,B,1,true,neg,NULL
1741177644,75651598b2a23a801427eb01845d85f2,PennController,5,0,experimental-trial,NULL,Text,item_goal,Print,NA,1741177622984,B,1,true,neg,NULL
1741177644,75651598b2a23a801427eb01845d85f2,PennController,5,0,experimental-trial,NULL,Scale,judgement,Choice,5,1741177635062,B,1,true,neg,NULL
1741177644,75651598b2a23a801427eb01845d85f2,PennController,5,0,experimental-trial,NULL,PennController,6,_Trial_,End,1741177635063,B,1,true,neg,NULL
1741177644,75651598b2a23a801427eb01845d85f2,PennController,10,0,experimental-trial,NULL,PennController,11,_Trial_,Start,1741177635063,B,6,true,-,NULL
1741177644,75651598b2a23a801427eb01845d85f2,PennController,10,0,experimental-trial,NULL,Text,item_goal,Print,NA,1741177635567,B,6,true,-,NULL
1741177644,75651598b2a23a801427eb01845d85f2,PennController,10,0,experimental-trial,NULL,Scale,judgement,Choice,4,1741177643718,B,6,true,-,NULL
1741177644,75651598b2a23a801427eb01845d85f2,PennController,10,0,experimental-trial,NULL,PennController,11,_Trial_,End,1741177643719,B,6,true,-,NULL
#
# Results on Wed, 05 Mar 2025 12:28:38 GMT
# USER AGENT: Mozilla/5.0 (Macintosh; Intel Mac OS X 10_15_7) AppleWebKit/605.1.15 (KHTML, like Gecko) Version/18.3 Safari/605.1.15
# Design number was non-random = 5
#
# Columns below this comment are as follows:
# 1. Results reception time.
# 2. MD5 hash of participant's IP address.
# 3. Controller name.
# 4. Order number of item.
# 5. Inner element number.
# 6. Label.
# 7. Latin Square Group.
# 8. PennElementType.
# 9. PennElementName.
# 10. Parameter.
# 11. Value.
# 12. EventTime.
# 13. Comments.
1741177718,da76257b3024ed6b4f5dfbe7bb87e88b,PennController,0,0,welcome,NULL,PennController,0,_Trial_,Start,1741177491315,NULL
1741177718,da76257b3024ed6b4f5dfbe7bb87e88b,PennController,0,0,welcome,NULL,PennController,0,_Trial_,End,1741177502452,NULL
1741177718,da76257b3024ed6b4f5dfbe7bb87e88b,PennController,1,0,mock-trial,NULL,PennController,1,_Trial_,Start,1741177502459,NULL
1741177718,da76257b3024ed6b4f5dfbe7bb87e88b,PennController,1,0,mock-trial,NULL,Text,item_goal,Print,NA,1741177502462,NULL
1741177718,da76257b3024ed6b4f5dfbe7bb87e88b,PennController,1,0,mock-trial,NULL,Scale,judgement,Choice,5,1741177523520,NULL
1741177718,da76257b3024ed6b4f5dfbe7bb87e88b,PennController,1,0,mock-trial,NULL,PennController,1,_Trial_,End,1741177523523,NULL
# 13. group.
# 14. item.
# 15. filler.
# 16. adj.
# 17. Comments.
1741177718,da76257b3024ed6b4f5dfbe7bb87e88b,PennController,3,0,experimental-trial,NULL,PennController,4,_Trial_,Start,1741177523525,B,00,control,-,NULL
1741177718,da76257b3024ed6b4f5dfbe7bb87e88b,PennController,3,0,experimental-trial,NULL,Text,item_goal,Print,NA,1741177524031,B,00,control,-,NULL
1741177718,da76257b3024ed6b4f5dfbe7bb87e88b,PennController,3,0,experimental-trial,NULL,Scale,judgement,Choice,5,1741177530435,B,00,control,-,NULL
1741177718,da76257b3024ed6b4f5dfbe7bb87e88b,PennController,3,0,experimental-trial,NULL,PennController,4,_Trial_,End,1741177530437,B,00,control,-,NULL
1741177718,da76257b3024ed6b4f5dfbe7bb87e88b,PennController,13,0,experimental-trial,NULL,PennController,14,_Trial_,Start,1741177530440,B,9,false,горячая,NULL
1741177718,da76257b3024ed6b4f5dfbe7bb87e88b,PennController,13,0,experimental-trial,NULL,Text,item_goal,Print,NA,1741177530946,B,9,false,горячая,NULL
1741177718,da76257b3024ed6b4f5dfbe7bb87e88b,PennController,13,0,experimental-trial,NULL,Scale,judgement,Choice,3,1741177543016,B,9,false,горячая,NULL
1741177718,da76257b3024ed6b4f5dfbe7bb87e88b,PennController,13,0,experimental-trial,NULL,PennController,14,_Trial_,End,1741177543017,B,9,false,горячая,NULL
1741177718,da76257b3024ed6b4f5dfbe7bb87e88b,PennController,8,0,experimental-trial,NULL,PennController,9,_Trial_,Start,1741177543019,B,4,true,cf,NULL
1741177718,da76257b3024ed6b4f5dfbe7bb87e88b,PennController,8,0,experimental-trial,NULL,Text,item_goal,Print,NA,1741177543523,B,4,true,cf,NULL
1741177718,da76257b3024ed6b4f5dfbe7bb87e88b,PennController,8,0,experimental-trial,NULL,Scale,judgement,Choice,1,1741177556867,B,4,true,cf,NULL
1741177718,da76257b3024ed6b4f5dfbe7bb87e88b,PennController,8,0,experimental-trial,NULL,PennController,9,_Trial_,End,1741177556871,B,4,true,cf,NULL
1741177718,da76257b3024ed6b4f5dfbe7bb87e88b,PennController,17,0,experimental-trial,NULL,PennController,18,_Trial_,Start,1741177556875,B,13,false,ленивая,NULL
1741177718,da76257b3024ed6b4f5dfbe7bb87e88b,PennController,17,0,experimental-trial,NULL,Text,item_goal,Print,NA,1741177557380,B,13,false,ленивая,NULL
1741177718,da76257b3024ed6b4f5dfbe7bb87e88b,PennController,17,0,experimental-trial,NULL,Scale,judgement,Choice,4,1741177582288,B,13,false,ленивая,NULL
1741177718,da76257b3024ed6b4f5dfbe7bb87e88b,PennController,17,0,experimental-trial,NULL,PennController,18,_Trial_,End,1741177582289,B,13,false,ленивая,NULL
1741177718,da76257b3024ed6b4f5dfbe7bb87e88b,PennController,5,0,experimental-trial,NULL,PennController,6,_Trial_,Start,1741177582291,B,1,true,neg,NULL
1741177718,da76257b3024ed6b4f5dfbe7bb87e88b,PennController,5,0,experimental-trial,NULL,Text,item_goal,Print,NA,1741177582793,B,1,true,neg,NULL
1741177718,da76257b3024ed6b4f5dfbe7bb87e88b,PennController,5,0,experimental-trial,NULL,Scale,judgement,Choice,4,1741177597867,B,1,true,neg,NULL
1741177718,da76257b3024ed6b4f5dfbe7bb87e88b,PennController,5,0,experimental-trial,NULL,PennController,6,_Trial_,End,1741177597872,B,1,true,neg,NULL
1741177718,da76257b3024ed6b4f5dfbe7bb87e88b,PennController,9,0,experimental-trial,NULL,PennController,10,_Trial_,Start,1741177597874,B,5,true,ind,NULL
1741177718,da76257b3024ed6b4f5dfbe7bb87e88b,PennController,9,0,experimental-trial,NULL,Text,item_goal,Print,NA,1741177598380,B,5,true,ind,NULL
1741177718,da76257b3024ed6b4f5dfbe7bb87e88b,PennController,9,0,experimental-trial,NULL,Scale,judgement,Choice,4,1741177613199,B,5,true,ind,NULL
1741177718,da76257b3024ed6b4f5dfbe7bb87e88b,PennController,9,0,experimental-trial,NULL,PennController,10,_Trial_,End,1741177613202,B,5,true,ind,NULL
1741177718,da76257b3024ed6b4f5dfbe7bb87e88b,PennController,15,0,experimental-trial,NULL,PennController,16,_Trial_,Start,1741177613206,B,11,false,тёмная,NULL
1741177718,da76257b3024ed6b4f5dfbe7bb87e88b,PennController,15,0,experimental-trial,NULL,Text,item_goal,Print,NA,1741177613710,B,11,false,тёмная,NULL
1741177718,da76257b3024ed6b4f5dfbe7bb87e88b,PennController,15,0,experimental-trial,NULL,Scale,judgement,Choice,3,1741177625999,B,11,false,тёмная,NULL
1741177718,da76257b3024ed6b4f5dfbe7bb87e88b,PennController,15,0,experimental-trial,NULL,PennController,16,_Trial_,End,1741177626002,B,11,false,тёмная,NULL
1741177718,da76257b3024ed6b4f5dfbe7bb87e88b,PennController,14,0,experimental-trial,NULL,PennController,15,_Trial_,Start,1741177626005,B,10,false,скупая,NULL
1741177718,da76257b3024ed6b4f5dfbe7bb87e88b,PennController,14,0,experimental-trial,NULL,Text,item_goal,Print,NA,1741177626508,B,10,false,скупая,NULL
1741177718,da76257b3024ed6b4f5dfbe7bb87e88b,PennController,14,0,experimental-trial,NULL,Scale,judgement,Choice,3,1741177637820,B,10,false,скупая,NULL
1741177718,da76257b3024ed6b4f5dfbe7bb87e88b,PennController,14,0,experimental-trial,NULL,PennController,15,_Trial_,End,1741177637822,B,10,false,скупая,NULL
1741177718,da76257b3024ed6b4f5dfbe7bb87e88b,PennController,11,0,experimental-trial,NULL,PennController,12,_Trial_,Start,1741177637824,B,7,true,-,NULL
1741177718,da76257b3024ed6b4f5dfbe7bb87e88b,PennController,11,0,experimental-trial,NULL,Text,item_goal,Print,NA,1741177638328,B,7,true,-,NULL
1741177718,da76257b3024ed6b4f5dfbe7bb87e88b,PennController,11,0,experimental-trial,NULL,Scale,judgement,Choice,3,1741177650099,B,7,true,-,NULL
1741177718,da76257b3024ed6b4f5dfbe7bb87e88b,PennController,11,0,experimental-trial,NULL,PennController,12,_Trial_,End,1741177650101,B,7,true,-,NULL
1741177718,da76257b3024ed6b4f5dfbe7bb87e88b,PennController,10,0,experimental-trial,NULL,PennController,11,_Trial_,Start,1741177650105,B,6,true,-,NULL
1741177718,da76257b3024ed6b4f5dfbe7bb87e88b,PennController,10,0,experimental-trial,NULL,Text,item_goal,Print,NA,1741177650607,B,6,true,-,NULL
1741177718,da76257b3024ed6b4f5dfbe7bb87e88b,PennController,10,0,experimental-trial,NULL,Scale,judgement,Choice,5,1741177659049,B,6,true,-,NULL
1741177718,da76257b3024ed6b4f5dfbe7bb87e88b,PennController,10,0,experimental-trial,NULL,PennController,11,_Trial_,End,1741177659051,B,6,true,-,NULL
1741177718,da76257b3024ed6b4f5dfbe7bb87e88b,PennController,7,0,experimental-trial,NULL,PennController,8,_Trial_,Start,1741177659052,B,3,true,-,NULL
1741177718,da76257b3024ed6b4f5dfbe7bb87e88b,PennController,7,0,experimental-trial,NULL,Text,item_goal,Print,NA,1741177659555,B,3,true,-,NULL
1741177718,da76257b3024ed6b4f5dfbe7bb87e88b,PennController,7,0,experimental-trial,NULL,Scale,judgement,Choice,1,1741177668792,B,3,true,-,NULL
1741177718,da76257b3024ed6b4f5dfbe7bb87e88b,PennController,7,0,experimental-trial,NULL,PennController,8,_Trial_,End,1741177668793,B,3,true,-,NULL
1741177718,da76257b3024ed6b4f5dfbe7bb87e88b,PennController,12,0,experimental-trial,NULL,PennController,13,_Trial_,Start,1741177668794,B,8,false,чистая,NULL
1741177718,da76257b3024ed6b4f5dfbe7bb87e88b,PennController,12,0,experimental-trial,NULL,Text,item_goal,Print,NA,1741177669297,B,8,false,чистая,NULL
1741177718,da76257b3024ed6b4f5dfbe7bb87e88b,PennController,12,0,experimental-trial,NULL,Scale,judgement,Choice,1,1741177678346,B,8,false,чистая,NULL
1741177718,da76257b3024ed6b4f5dfbe7bb87e88b,PennController,12,0,experimental-trial,NULL,PennController,13,_Trial_,End,1741177678348,B,8,false,чистая,NULL
1741177718,da76257b3024ed6b4f5dfbe7bb87e88b,PennController,2,0,experimental-trial,NULL,PennController,3,_Trial_,Start,1741177678349,B,0,control,-,NULL
1741177718,da76257b3024ed6b4f5dfbe7bb87e88b,PennController,2,0,experimental-trial,NULL,Text,item_goal,Print,NA,1741177678852,B,0,control,-,NULL
1741177718,da76257b3024ed6b4f5dfbe7bb87e88b,PennController,2,0,experimental-trial,NULL,Scale,judgement,Choice,1,1741177688108,B,0,control,-,NULL
1741177718,da76257b3024ed6b4f5dfbe7bb87e88b,PennController,2,0,experimental-trial,NULL,PennController,3,_Trial_,End,1741177688110,B,0,control,-,NULL
1741177718,da76257b3024ed6b4f5dfbe7bb87e88b,PennController,4,0,experimental-trial,NULL,PennController,5,_Trial_,Start,1741177688111,B,000,control,-,NULL
1741177718,da76257b3024ed6b4f5dfbe7bb87e88b,PennController,4,0,experimental-trial,NULL,Text,item_goal,Print,NA,1741177688615,B,000,control,-,NULL
1741177718,da76257b3024ed6b4f5dfbe7bb87e88b,PennController,4,0,experimental-trial,NULL,Scale,judgement,Choice,5,1741177695646,B,000,control,-,NULL
1741177718,da76257b3024ed6b4f5dfbe7bb87e88b,PennController,4,0,experimental-trial,NULL,PennController,5,_Trial_,End,1741177695648,B,000,control,-,NULL
1741177718,da76257b3024ed6b4f5dfbe7bb87e88b,PennController,16,0,experimental-trial,NULL,PennController,17,_Trial_,Start,1741177695650,B,12,false,уродливая,NULL
1741177718,da76257b3024ed6b4f5dfbe7bb87e88b,PennController,16,0,experimental-trial,NULL,Text,item_goal,Print,NA,1741177696154,B,12,false,уродливая,NULL
1741177718,da76257b3024ed6b4f5dfbe7bb87e88b,PennController,16,0,experimental-trial,NULL,Scale,judgement,Choice,4,1741177710128,B,12,false,уродливая,NULL
1741177718,da76257b3024ed6b4f5dfbe7bb87e88b,PennController,16,0,experimental-trial,NULL,PennController,17,_Trial_,End,1741177710130,B,12,false,уродливая,NULL
1741177718,da76257b3024ed6b4f5dfbe7bb87e88b,PennController,6,0,experimental-trial,NULL,PennController,7,_Trial_,Start,1741177710135,B,2,true,-,NULL
1741177718,da76257b3024ed6b4f5dfbe7bb87e88b,PennController,6,0,experimental-trial,NULL,Text,item_goal,Print,NA,1741177710642,B,2,true,-,NULL
1741177718,da76257b3024ed6b4f5dfbe7bb87e88b,PennController,6,0,experimental-trial,NULL,Scale,judgement,Choice,5,1741177716694,B,2,true,-,NULL
1741177718,da76257b3024ed6b4f5dfbe7bb87e88b,PennController,6,0,experimental-trial,NULL,PennController,7,_Trial_,End,1741177716695,B,2,true,-,NULL
#
# Results on Wed, 05 Mar 2025 12:30:20 GMT
# USER AGENT: Mozilla/5.0 (Windows NT 10.0; Win64; x64) AppleWebKit/537.36 (KHTML, like Gecko) Chrome/133.0.0.0 Safari/537.36
# Design number was non-random = 7
#
# Columns below this comment are as follows:
# 1. Results reception time.
# 2. MD5 hash of participant's IP address.
# 3. Controller name.
# 4. Order number of item.
# 5. Inner element number.
# 6. Label.
# 7. Latin Square Group.
# 8. PennElementType.
# 9. PennElementName.
# 10. Parameter.
# 11. Value.
# 12. EventTime.
# 13. Comments.
1741177820,b20acf9e577a7ce0ea2dc63bb1d8c1cd,PennController,0,0,welcome,NULL,PennController,0,_Trial_,Start,1741177680422,NULL
1741177820,b20acf9e577a7ce0ea2dc63bb1d8c1cd,PennController,0,0,welcome,NULL,PennController,0,_Trial_,End,1741177689003,NULL
1741177820,b20acf9e577a7ce0ea2dc63bb1d8c1cd,PennController,1,0,mock-trial,NULL,PennController,1,_Trial_,Start,1741177689006,NULL
1741177820,b20acf9e577a7ce0ea2dc63bb1d8c1cd,PennController,1,0,mock-trial,NULL,Text,item_goal,Print,NA,1741177689007,NULL
1741177820,b20acf9e577a7ce0ea2dc63bb1d8c1cd,PennController,1,0,mock-trial,NULL,Scale,judgement,Choice,5,1741177695434,NULL
1741177820,b20acf9e577a7ce0ea2dc63bb1d8c1cd,PennController,1,0,mock-trial,NULL,PennController,1,_Trial_,End,1741177695435,NULL
# 13. group.
# 14. item.
# 15. filler.
# 16. adj.
# 17. Comments.
1741177820,b20acf9e577a7ce0ea2dc63bb1d8c1cd,PennController,8,0,experimental-trial,NULL,PennController,9,_Trial_,Start,1741177695436,D,4,true,cf,NULL
1741177820,b20acf9e577a7ce0ea2dc63bb1d8c1cd,PennController,8,0,experimental-trial,NULL,Text,item_goal,Print,NA,1741177695941,D,4,true,cf,NULL
1741177820,b20acf9e577a7ce0ea2dc63bb1d8c1cd,PennController,8,0,experimental-trial,NULL,Scale,judgement,Choice,1,1741177706014,D,4,true,cf,NULL
1741177820,b20acf9e577a7ce0ea2dc63bb1d8c1cd,PennController,8,0,experimental-trial,NULL,PennController,9,_Trial_,End,1741177706016,D,4,true,cf,NULL
1741177820,b20acf9e577a7ce0ea2dc63bb1d8c1cd,PennController,9,0,experimental-trial,NULL,PennController,10,_Trial_,Start,1741177706018,D,5,true,ind,NULL
1741177820,b20acf9e577a7ce0ea2dc63bb1d8c1cd,PennController,9,0,experimental-trial,NULL,Text,item_goal,Print,NA,1741177706522,D,5,true,ind,NULL
1741177820,b20acf9e577a7ce0ea2dc63bb1d8c1cd,PennController,9,0,experimental-trial,NULL,Scale,judgement,Choice,3,1741177712492,D,5,true,ind,NULL
1741177820,b20acf9e577a7ce0ea2dc63bb1d8c1cd,PennController,9,0,experimental-trial,NULL,PennController,10,_Trial_,End,1741177712493,D,5,true,ind,NULL
1741177820,b20acf9e577a7ce0ea2dc63bb1d8c1cd,PennController,2,0,experimental-trial,NULL,PennController,3,_Trial_,Start,1741177712495,D,0,control,-,NULL
1741177820,b20acf9e577a7ce0ea2dc63bb1d8c1cd,PennController,2,0,experimental-trial,NULL,Text,item_goal,Print,NA,1741177713001,D,0,control,-,NULL
1741177820,b20acf9e577a7ce0ea2dc63bb1d8c1cd,PennController,2,0,experimental-trial,NULL,Scale,judgement,Choice,1,1741177724574,D,0,control,-,NULL
1741177820,b20acf9e577a7ce0ea2dc63bb1d8c1cd,PennController,2,0,experimental-trial,NULL,PennController,3,_Trial_,End,1741177724576,D,0,control,-,NULL
1741177820,b20acf9e577a7ce0ea2dc63bb1d8c1cd,PennController,17,0,experimental-trial,NULL,PennController,18,_Trial_,Start,1741177724577,D,19,false,высокая,NULL
1741177820,b20acf9e577a7ce0ea2dc63bb1d8c1cd,PennController,17,0,experimental-trial,NULL,Text,item_goal,Print,NA,1741177725080,D,19,false,высокая,NULL
1741177820,b20acf9e577a7ce0ea2dc63bb1d8c1cd,PennController,17,0,experimental-trial,NULL,Scale,judgement,Choice,3,1741177731501,D,19,false,высокая,NULL
1741177820,b20acf9e577a7ce0ea2dc63bb1d8c1cd,PennController,17,0,experimental-trial,NULL,PennController,18,_Trial_,End,1741177731503,D,19,false,высокая,NULL
1741177820,b20acf9e577a7ce0ea2dc63bb1d8c1cd,PennController,16,0,experimental-trial,NULL,PennController,17,_Trial_,Start,1741177731504,D,18,false,тяжёлая,NULL
1741177820,b20acf9e577a7ce0ea2dc63bb1d8c1cd,PennController,16,0,experimental-trial,NULL,Text,item_goal,Print,NA,1741177732006,D,18,false,тяжёлая,NULL
1741177820,b20acf9e577a7ce0ea2dc63bb1d8c1cd,PennController,16,0,experimental-trial,NULL,Scale,judgement,Choice,3,1741177740082,D,18,false,тяжёлая,NULL
1741177820,b20acf9e577a7ce0ea2dc63bb1d8c1cd,PennController,16,0,experimental-trial,NULL,PennController,17,_Trial_,End,1741177740083,D,18,false,тяжёлая,NULL
1741177820,b20acf9e577a7ce0ea2dc63bb1d8c1cd,PennController,13,0,experimental-trial,NULL,PennController,14,_Trial_,Start,1741177740085,D,15,false,злая,NULL
1741177820,b20acf9e577a7ce0ea2dc63bb1d8c1cd,PennController,13,0,experimental-trial,NULL,Text,item_goal,Print,NA,1741177740588,D,15,false,злая,NULL
1741177820,b20acf9e577a7ce0ea2dc63bb1d8c1cd,PennController,13,0,experimental-trial,NULL,Scale,judgement,Choice,4,1741177746444,D,15,false,злая,NULL
1741177820,b20acf9e577a7ce0ea2dc63bb1d8c1cd,PennController,13,0,experimental-trial,NULL,PennController,14,_Trial_,End,1741177746445,D,15,false,злая,NULL
1741177820,b20acf9e577a7ce0ea2dc63bb1d8c1cd,PennController,14,0,experimental-trial,NULL,PennController,15,_Trial_,Start,1741177746446,D,16,false,тупая,NULL
1741177820,b20acf9e577a7ce0ea2dc63bb1d8c1cd,PennController,14,0,experimental-trial,NULL,Text,item_goal,Print,NA,1741177746949,D,16,false,тупая,NULL
1741177820,b20acf9e577a7ce0ea2dc63bb1d8c1cd,PennController,14,0,experimental-trial,NULL,Scale,judgement,Choice,4,1741177752441,D,16,false,тупая,NULL
1741177820,b20acf9e577a7ce0ea2dc63bb1d8c1cd,PennController,14,0,experimental-trial,NULL,PennController,15,_Trial_,End,1741177752443,D,16,false,тупая,NULL
1741177820,b20acf9e577a7ce0ea2dc63bb1d8c1cd,PennController,11,0,experimental-trial,NULL,PennController,12,_Trial_,Start,1741177752444,D,7,true,-,NULL
1741177820,b20acf9e577a7ce0ea2dc63bb1d8c1cd,PennController,11,0,experimental-trial,NULL,Text,item_goal,Print,NA,1741177752947,D,7,true,-,NULL
1741177820,b20acf9e577a7ce0ea2dc63bb1d8c1cd,PennController,11,0,experimental-trial,NULL,Scale,judgement,Choice,1,1741177762238,D,7,true,-,NULL
1741177820,b20acf9e577a7ce0ea2dc63bb1d8c1cd,PennController,11,0,experimental-trial,NULL,PennController,12,_Trial_,End,1741177762239,D,7,true,-,NULL
1741177820,b20acf9e577a7ce0ea2dc63bb1d8c1cd,PennController,7,0,experimental-trial,NULL,PennController,8,_Trial_,Start,1741177762241,D,3,true,-,NULL
1741177820,b20acf9e577a7ce0ea2dc63bb1d8c1cd,PennController,7,0,experimental-trial,NULL,Text,item_goal,Print,NA,1741177762744,D,3,true,-,NULL
1741177820,b20acf9e577a7ce0ea2dc63bb1d8c1cd,PennController,7,0,experimental-trial,NULL,Scale,judgement,Choice,3,1741177771950,D,3,true,-,NULL
1741177820,b20acf9e577a7ce0ea2dc63bb1d8c1cd,PennController,7,0,experimental-trial,NULL,PennController,8,_Trial_,End,1741177771951,D,3,true,-,NULL
1741177820,b20acf9e577a7ce0ea2dc63bb1d8c1cd,PennController,3,0,experimental-trial,NULL,PennController,4,_Trial_,Start,1741177771952,D,00,control,-,NULL
1741177820,b20acf9e577a7ce0ea2dc63bb1d8c1cd,PennController,3,0,experimental-trial,NULL,Text,item_goal,Print,NA,1741177772452,D,00,control,-,NULL
1741177820,b20acf9e577a7ce0ea2dc63bb1d8c1cd,PennController,3,0,experimental-trial,NULL,Scale,judgement,Choice,5,1741177778032,D,00,control,-,NULL
1741177820,b20acf9e577a7ce0ea2dc63bb1d8c1cd,PennController,3,0,experimental-trial,NULL,PennController,4,_Trial_,End,1741177778033,D,00,control,-,NULL
1741177820,b20acf9e577a7ce0ea2dc63bb1d8c1cd,PennController,15,0,experimental-trial,NULL,PennController,16,_Trial_,Start,1741177778034,D,17,false,храбрая,NULL
1741177820,b20acf9e577a7ce0ea2dc63bb1d8c1cd,PennController,15,0,experimental-trial,NULL,Text,item_goal,Print,NA,1741177778536,D,17,false,храбрая,NULL
1741177820,b20acf9e577a7ce0ea2dc63bb1d8c1cd,PennController,15,0,experimental-trial,NULL,Scale,judgement,Choice,3,1741177785543,D,17,false,храбрая,NULL
1741177820,b20acf9e577a7ce0ea2dc63bb1d8c1cd,PennController,15,0,experimental-trial,NULL,PennController,16,_Trial_,End,1741177785544,D,17,false,храбрая,NULL
1741177820,b20acf9e577a7ce0ea2dc63bb1d8c1cd,PennController,10,0,experimental-trial,NULL,PennController,11,_Trial_,Start,1741177785545,D,6,true,-,NULL
1741177820,b20acf9e577a7ce0ea2dc63bb1d8c1cd,PennController,10,0,experimental-trial,NULL,Text,item_goal,Print,NA,1741177786048,D,6,true,-,NULL
1741177820,b20acf9e577a7ce0ea2dc63bb1d8c1cd,PennController,10,0,experimental-trial,NULL,Scale,judgement,Choice,5,1741177797939,D,6,true,-,NULL
1741177820,b20acf9e577a7ce0ea2dc63bb1d8c1cd,PennController,10,0,experimental-trial,NULL,PennController,11,_Trial_,End,1741177797940,D,6,true,-,NULL
1741177820,b20acf9e577a7ce0ea2dc63bb1d8c1cd,PennController,6,0,experimental-trial,NULL,PennController,7,_Trial_,Start,1741177797941,D,2,true,-,NULL
1741177820,b20acf9e577a7ce0ea2dc63bb1d8c1cd,PennController,6,0,experimental-trial,NULL,Text,item_goal,Print,NA,1741177798448,D,2,true,-,NULL
1741177820,b20acf9e577a7ce0ea2dc63bb1d8c1cd,PennController,6,0,experimental-trial,NULL,Scale,judgement,Choice,5,1741177804328,D,2,true,-,NULL
1741177820,b20acf9e577a7ce0ea2dc63bb1d8c1cd,PennController,6,0,experimental-trial,NULL,PennController,7,_Trial_,End,1741177804329,D,2,true,-,NULL
1741177820,b20acf9e577a7ce0ea2dc63bb1d8c1cd,PennController,5,0,experimental-trial,NULL,PennController,6,_Trial_,Start,1741177804329,D,1,true,pos,NULL
1741177820,b20acf9e577a7ce0ea2dc63bb1d8c1cd,PennController,5,0,experimental-trial,NULL,Text,item_goal,Print,NA,1741177804833,D,1,true,pos,NULL
1741177820,b20acf9e577a7ce0ea2dc63bb1d8c1cd,PennController,5,0,experimental-trial,NULL,Scale,judgement,Choice,5,1741177806865,D,1,true,pos,NULL
1741177820,b20acf9e577a7ce0ea2dc63bb1d8c1cd,PennController,5,0,experimental-trial,NULL,PennController,6,_Trial_,End,1741177806867,D,1,true,pos,NULL
1741177820,b20acf9e577a7ce0ea2dc63bb1d8c1cd,PennController,4,0,experimental-trial,NULL,PennController,5,_Trial_,Start,1741177806867,D,000,control,-,NULL
1741177820,b20acf9e577a7ce0ea2dc63bb1d8c1cd,PennController,4,0,experimental-trial,NULL,Text,item_goal,Print,NA,1741177807368,D,000,control,-,NULL
1741177820,b20acf9e577a7ce0ea2dc63bb1d8c1cd,PennController,4,0,experimental-trial,NULL,Scale,judgement,Choice,5,1741177810700,D,000,control,-,NULL
1741177820,b20acf9e577a7ce0ea2dc63bb1d8c1cd,PennController,4,0,experimental-trial,NULL,PennController,5,_Trial_,End,1741177810701,D,000,control,-,NULL
1741177820,b20acf9e577a7ce0ea2dc63bb1d8c1cd,PennController,12,0,experimental-trial,NULL,PennController,13,_Trial_,Start,1741177810702,D,14,false,медленная,NULL
1741177820,b20acf9e577a7ce0ea2dc63bb1d8c1cd,PennController,12,0,experimental-trial,NULL,Text,item_goal,Print,NA,1741177811208,D,14,false,медленная,NULL
1741177820,b20acf9e577a7ce0ea2dc63bb1d8c1cd,PennController,12,0,experimental-trial,NULL,Scale,judgement,Choice,3,1741177820962,D,14,false,медленная,NULL
1741177820,b20acf9e577a7ce0ea2dc63bb1d8c1cd,PennController,12,0,experimental-trial,NULL,PennController,13,_Trial_,End,1741177820963,D,14,false,медленная,NULL
#
# Results on Wed, 05 Mar 2025 12:30:31 GMT
# USER AGENT: Mozilla/5.0 (Windows NT 10.0; Win64; x64) AppleWebKit/537.36 (KHTML, like Gecko) Chrome/132.0.0.0 YaBrowser/25.2.0.0 Safari/537.36
# Design number was non-random = 5
#
# Columns below this comment are as follows:
# 1. Results reception time.
# 2. MD5 hash of participant's IP address.
# 3. Controller name.
# 4. Order number of item.
# 5. Inner element number.
# 6. Label.
# 7. Latin Square Group.
# 8. PennElementType.
# 9. PennElementName.
# 10. Parameter.
# 11. Value.
# 12. EventTime.
# 13. Comments.
1741177831,bc75086a9151aea265f9fae8e6de3132,PennController,0,0,welcome,NULL,PennController,0,_Trial_,Start,1741177571975,NULL
1741177831,bc75086a9151aea265f9fae8e6de3132,PennController,0,0,welcome,NULL,PennController,0,_Trial_,End,1741177584244,NULL
1741177831,bc75086a9151aea265f9fae8e6de3132,PennController,1,0,mock-trial,NULL,PennController,1,_Trial_,Start,1741177584250,NULL
1741177831,bc75086a9151aea265f9fae8e6de3132,PennController,1,0,mock-trial,NULL,Text,item_goal,Print,NA,1741177584252,NULL
1741177831,bc75086a9151aea265f9fae8e6de3132,PennController,1,0,mock-trial,NULL,Scale,judgement,Choice,5,1741177590334,NULL
1741177831,bc75086a9151aea265f9fae8e6de3132,PennController,1,0,mock-trial,NULL,PennController,1,_Trial_,End,1741177590339,NULL
# 13. group.
# 14. item.
# 15. filler.
# 16. adj.
# 17. Comments.
1741177831,bc75086a9151aea265f9fae8e6de3132,PennController,16,0,experimental-trial,NULL,PennController,17,_Trial_,Start,1741177590342,B,12,false,уродливая,NULL
1741177831,bc75086a9151aea265f9fae8e6de3132,PennController,16,0,experimental-trial,NULL,Text,item_goal,Print,NA,1741177590850,B,12,false,уродливая,NULL
1741177831,bc75086a9151aea265f9fae8e6de3132,PennController,16,0,experimental-trial,NULL,Scale,judgement,Choice,2,1741177609392,B,12,false,уродливая,NULL
1741177831,bc75086a9151aea265f9fae8e6de3132,PennController,16,0,experimental-trial,NULL,PennController,17,_Trial_,End,1741177609396,B,12,false,уродливая,NULL
1741177831,bc75086a9151aea265f9fae8e6de3132,PennController,13,0,experimental-trial,NULL,PennController,14,_Trial_,Start,1741177609400,B,9,false,горячая,NULL
1741177831,bc75086a9151aea265f9fae8e6de3132,PennController,13,0,experimental-trial,NULL,Text,item_goal,Print,NA,1741177609907,B,9,false,горячая,NULL
1741177831,bc75086a9151aea265f9fae8e6de3132,PennController,13,0,experimental-trial,NULL,Scale,judgement,Choice,3,1741177618583,B,9,false,горячая,NULL
1741177831,bc75086a9151aea265f9fae8e6de3132,PennController,13,0,experimental-trial,NULL,PennController,14,_Trial_,End,1741177618585,B,9,false,горячая,NULL
1741177831,bc75086a9151aea265f9fae8e6de3132,PennController,11,0,experimental-trial,NULL,PennController,12,_Trial_,Start,1741177618586,B,7,true,-,NULL
1741177831,bc75086a9151aea265f9fae8e6de3132,PennController,11,0,experimental-trial,NULL,Text,item_goal,Print,NA,1741177619095,B,7,true,-,NULL
1741177831,bc75086a9151aea265f9fae8e6de3132,PennController,11,0,experimental-trial,NULL,Scale,judgement,Choice,2,1741177630136,B,7,true,-,NULL
1741177831,bc75086a9151aea265f9fae8e6de3132,PennController,11,0,experimental-trial,NULL,PennController,12,_Trial_,End,1741177630141,B,7,true,-,NULL
1741177831,bc75086a9151aea265f9fae8e6de3132,PennController,6,0,experimental-trial,NULL,PennController,7,_Trial_,Start,1741177630145,B,2,true,-,NULL
1741177831,bc75086a9151aea265f9fae8e6de3132,PennController,6,0,experimental-trial,NULL,Text,item_goal,Print,NA,1741177630650,B,2,true,-,NULL
1741177831,bc75086a9151aea265f9fae8e6de3132,PennController,6,0,experimental-trial,NULL,Scale,judgement,Choice,5,1741177639896,B,2,true,-,NULL
1741177831,bc75086a9151aea265f9fae8e6de3132,PennController,6,0,experimental-trial,NULL,PennController,7,_Trial_,End,1741177639899,B,2,true,-,NULL
1741177831,bc75086a9151aea265f9fae8e6de3132,PennController,4,0,experimental-trial,NULL,PennController,5,_Trial_,Start,1741177639902,B,000,control,-,NULL
1741177831,bc75086a9151aea265f9fae8e6de3132,PennController,4,0,experimental-trial,NULL,Text,item_goal,Print,NA,1741177640404,B,000,control,-,NULL
1741177831,bc75086a9151aea265f9fae8e6de3132,PennController,4,0,experimental-trial,NULL,Scale,judgement,Choice,5,1741177643440,B,000,control,-,NULL
1741177831,bc75086a9151aea265f9fae8e6de3132,PennController,4,0,experimental-trial,NULL,PennController,5,_Trial_,End,1741177643443,B,000,control,-,NULL
1741177831,bc75086a9151aea265f9fae8e6de3132,PennController,14,0,experimental-trial,NULL,PennController,15,_Trial_,Start,1741177643446,B,10,false,скупая,NULL
1741177831,bc75086a9151aea265f9fae8e6de3132,PennController,14,0,experimental-trial,NULL,Text,item_goal,Print,NA,1741177643950,B,10,false,скупая,NULL
1741177831,bc75086a9151aea265f9fae8e6de3132,PennController,14,0,experimental-trial,NULL,Scale,judgement,Choice,4,1741177649016,B,10,false,скупая,NULL
1741177831,bc75086a9151aea265f9fae8e6de3132,PennController,14,0,experimental-trial,NULL,PennController,15,_Trial_,End,1741177649018,B,10,false,скупая,NULL
1741177831,bc75086a9151aea265f9fae8e6de3132,PennController,10,0,experimental-trial,NULL,PennController,11,_Trial_,Start,1741177649021,B,6,true,-,NULL
1741177831,bc75086a9151aea265f9fae8e6de3132,PennController,10,0,experimental-trial,NULL,Text,item_goal,Print,NA,1741177649525,B,6,true,-,NULL
1741177831,bc75086a9151aea265f9fae8e6de3132,PennController,10,0,experimental-trial,NULL,Scale,judgement,Choice,4,1741177663416,B,6,true,-,NULL
1741177831,bc75086a9151aea265f9fae8e6de3132,PennController,10,0,experimental-trial,NULL,PennController,11,_Trial_,End,1741177663419,B,6,true,-,NULL
1741177831,bc75086a9151aea265f9fae8e6de3132,PennController,9,0,experimental-trial,NULL,PennController,10,_Trial_,Start,1741177663422,B,5,true,ind,NULL
1741177831,bc75086a9151aea265f9fae8e6de3132,PennController,9,0,experimental-trial,NULL,Text,item_goal,Print,NA,1741177663927,B,5,true,ind,NULL
1741177831,bc75086a9151aea265f9fae8e6de3132,PennController,9,0,experimental-trial,NULL,Scale,judgement,Choice,5,1741177685295,B,5,true,ind,NULL
1741177831,bc75086a9151aea265f9fae8e6de3132,PennController,9,0,experimental-trial,NULL,PennController,10,_Trial_,End,1741177685297,B,5,true,ind,NULL
1741177831,bc75086a9151aea265f9fae8e6de3132,PennController,3,0,experimental-trial,NULL,PennController,4,_Trial_,Start,1741177685299,B,00,control,-,NULL
1741177831,bc75086a9151aea265f9fae8e6de3132,PennController,3,0,experimental-trial,NULL,Text,item_goal,Print,NA,1741177685803,B,00,control,-,NULL
1741177831,bc75086a9151aea265f9fae8e6de3132,PennController,3,0,experimental-trial,NULL,Scale,judgement,Choice,5,1741177693344,B,00,control,-,NULL
1741177831,bc75086a9151aea265f9fae8e6de3132,PennController,3,0,experimental-trial,NULL,PennController,4,_Trial_,End,1741177693347,B,00,control,-,NULL
1741177831,bc75086a9151aea265f9fae8e6de3132,PennController,17,0,experimental-trial,NULL,PennController,18,_Trial_,Start,1741177693349,B,13,false,ленивая,NULL
1741177831,bc75086a9151aea265f9fae8e6de3132,PennController,17,0,experimental-trial,NULL,Text,item_goal,Print,NA,1741177693853,B,13,false,ленивая,NULL
1741177831,bc75086a9151aea265f9fae8e6de3132,PennController,17,0,experimental-trial,NULL,Scale,judgement,Choice,2,1741177700968,B,13,false,ленивая,NULL
1741177831,bc75086a9151aea265f9fae8e6de3132,PennController,17,0,experimental-trial,NULL,PennController,18,_Trial_,End,1741177700971,B,13,false,ленивая,NULL
1741177831,bc75086a9151aea265f9fae8e6de3132,PennController,12,0,experimental-trial,NULL,PennController,13,_Trial_,Start,1741177700973,B,8,false,чистая,NULL
1741177831,bc75086a9151aea265f9fae8e6de3132,PennController,12,0,experimental-trial,NULL,Text,item_goal,Print,NA,1741177701478,B,8,false,чистая,NULL
1741177831,bc75086a9151aea265f9fae8e6de3132,PennController,12,0,experimental-trial,NULL,Scale,judgement,Choice,1,1741177710704,B,8,false,чистая,NULL
1741177831,bc75086a9151aea265f9fae8e6de3132,PennController,12,0,experimental-trial,NULL,PennController,13,_Trial_,End,1741177710707,B,8,false,чистая,NULL
1741177831,bc75086a9151aea265f9fae8e6de3132,PennController,15,0,experimental-trial,NULL,PennController,16,_Trial_,Start,1741177710709,B,11,false,тёмная,NULL
1741177831,bc75086a9151aea265f9fae8e6de3132,PennController,15,0,experimental-trial,NULL,Text,item_goal,Print,NA,1741177711216,B,11,false,тёмная,NULL
1741177831,bc75086a9151aea265f9fae8e6de3132,PennController,15,0,experimental-trial,NULL,Scale,judgement,Choice,5,1741177718679,B,11,false,тёмная,NULL
1741177831,bc75086a9151aea265f9fae8e6de3132,PennController,15,0,experimental-trial,NULL,PennController,16,_Trial_,End,1741177718680,B,11,false,тёмная,NULL
1741177831,bc75086a9151aea265f9fae8e6de3132,PennController,2,0,experimental-trial,NULL,PennController,3,_Trial_,Start,1741177718681,B,0,control,-,NULL
1741177831,bc75086a9151aea265f9fae8e6de3132,PennController,2,0,experimental-trial,NULL,Text,item_goal,Print,NA,1741177719182,B,0,control,-,NULL
1741177831,bc75086a9151aea265f9fae8e6de3132,PennController,2,0,experimental-trial,NULL,Scale,judgement,Choice,1,1741177736552,B,0,control,-,NULL
1741177831,bc75086a9151aea265f9fae8e6de3132,PennController,2,0,experimental-trial,NULL,PennController,3,_Trial_,End,1741177736554,B,0,control,-,NULL
1741177831,bc75086a9151aea265f9fae8e6de3132,PennController,8,0,experimental-trial,NULL,PennController,9,_Trial_,Start,1741177736557,B,4,true,cf,NULL
1741177831,bc75086a9151aea265f9fae8e6de3132,PennController,8,0,experimental-trial,NULL,Text,item_goal,Print,NA,1741177737062,B,4,true,cf,NULL
1741177831,bc75086a9151aea265f9fae8e6de3132,PennController,8,0,experimental-trial,NULL,Scale,judgement,Choice,1,1741177746464,B,4,true,cf,NULL
1741177831,bc75086a9151aea265f9fae8e6de3132,PennController,8,0,experimental-trial,NULL,PennController,9,_Trial_,End,1741177746466,B,4,true,cf,NULL
1741177831,bc75086a9151aea265f9fae8e6de3132,PennController,5,0,experimental-trial,NULL,PennController,6,_Trial_,Start,1741177746469,B,1,true,neg,NULL
1741177831,bc75086a9151aea265f9fae8e6de3132,PennController,5,0,experimental-trial,NULL,Text,item_goal,Print,NA,1741177746975,B,1,true,neg,NULL
1741177831,bc75086a9151aea265f9fae8e6de3132,PennController,5,0,experimental-trial,NULL,Scale,judgement,Choice,1,1741177752000,B,1,true,neg,NULL
1741177831,bc75086a9151aea265f9fae8e6de3132,PennController,5,0,experimental-trial,NULL,PennController,6,_Trial_,End,1741177752002,B,1,true,neg,NULL
1741177831,bc75086a9151aea265f9fae8e6de3132,PennController,7,0,experimental-trial,NULL,PennController,8,_Trial_,Start,1741177752004,B,3,true,-,NULL
1741177831,bc75086a9151aea265f9fae8e6de3132,PennController,7,0,experimental-trial,NULL,Text,item_goal,Print,NA,1741177752508,B,3,true,-,NULL
1741177831,bc75086a9151aea265f9fae8e6de3132,PennController,7,0,experimental-trial,NULL,Scale,judgement,Choice,5,1741177829776,B,3,true,-,NULL
1741177831,bc75086a9151aea265f9fae8e6de3132,PennController,7,0,experimental-trial,NULL,PennController,8,_Trial_,End,1741177829779,B,3,true,-,NULL
#
# Results on Wed, 05 Mar 2025 12:33:35 GMT
# USER AGENT: Mozilla/5.0 (Windows NT 10.0; Win64; x64) AppleWebKit/537.36 (KHTML, like Gecko) Chrome/133.0.0.0 Safari/537.36
# Design number was non-random = 5
#
# Columns below this comment are as follows:
# 1. Results reception time.
# 2. MD5 hash of participant's IP address.
# 3. Controller name.
# 4. Order number of item.
# 5. Inner element number.
# 6. Label.
# 7. Latin Square Group.
# 8. PennElementType.
# 9. PennElementName.
# 10. Parameter.
# 11. Value.
# 12. EventTime.
# 13. Comments.
1741178015,841ddadadd965dab15680421384a74d3,PennController,0,0,welcome,NULL,PennController,0,_Trial_,Start,1741177566185,NULL
1741178015,841ddadadd965dab15680421384a74d3,PennController,0,0,welcome,NULL,PennController,0,_Trial_,End,1741178006238,NULL
1741178015,841ddadadd965dab15680421384a74d3,PennController,1,0,mock-trial,NULL,PennController,1,_Trial_,Start,1741178006240,NULL
1741178015,841ddadadd965dab15680421384a74d3,PennController,1,0,mock-trial,NULL,Text,item_goal,Print,NA,1741178006241,NULL
1741178015,841ddadadd965dab15680421384a74d3,PennController,1,0,mock-trial,NULL,Scale,judgement,Choice,5,1741178011445,NULL
1741178015,841ddadadd965dab15680421384a74d3,PennController,1,0,mock-trial,NULL,PennController,1,_Trial_,End,1741178011448,NULL
# 13. group.
# 14. item.
# 15. filler.
# 16. adj.
# 17. Comments.
1741178015,841ddadadd965dab15680421384a74d3,PennController,6,0,experimental-trial,NULL,PennController,7,_Trial_,Start,1741178011450,B,2,true,-,NULL
1741178015,841ddadadd965dab15680421384a74d3,PennController,6,0,experimental-trial,NULL,Text,item_goal,Print,NA,1741178011954,B,2,true,-,NULL
1741178015,841ddadadd965dab15680421384a74d3,PennController,6,0,experimental-trial,NULL,Scale,judgement,Choice,5,1741178019287,B,2,true,-,NULL
