#
# Results on Mon, 10 Mar 2025 18:21:17 GMT
# USER AGENT: Mozilla/5.0 (Windows NT 10.0; Win64; x64) AppleWebKit/537.36 (KHTML, like Gecko) Chrome/132.0.0.0 YaBrowser/25.2.0.0 Safari/537.36
# Design number was non-random = 0
#
# Columns below this comment are as follows:
# 1. Results reception time.
# 2. MD5 hash of participant's IP address.
# 3. Controller name.
# 4. Order number of item.
# 5. Inner element number.
# 6. Label.
# 7. Latin Square Group.
# 8. PennElementType.
# 9. PennElementName.
# 10. Parameter.
# 11. Value.
# 12. EventTime.
# 13. Comments.
1741630877,6255c46fb45543d3c65e45dad17f7e34,PennController,0,0,welcome,NULL,PennController,0,_Trial_,Start,1741630842167,NULL
1741630877,6255c46fb45543d3c65e45dad17f7e34,PennController,0,0,welcome,NULL,PennController,0,_Trial_,End,1741630846634,NULL
1741630877,6255c46fb45543d3c65e45dad17f7e34,PennController,1,0,mock-trial,NULL,PennController,1,_Trial_,Start,1741630846635,NULL
1741630877,6255c46fb45543d3c65e45dad17f7e34,PennController,1,0,mock-trial,NULL,Text,item_goal,Print,NA,1741630846636,NULL
1741630877,6255c46fb45543d3c65e45dad17f7e34,PennController,1,0,mock-trial,NULL,Scale,judgement,Choice,5,1741630850857,NULL
1741630877,6255c46fb45543d3c65e45dad17f7e34,PennController,1,0,mock-trial,NULL,PennController,1,_Trial_,End,1741630850858,NULL
# 13. group.
# 14. item.
# 15. filler.
# 16. adj.
# 17. Comments.
1741630877,6255c46fb45543d3c65e45dad17f7e34,PennController,3,0,experimental-trial,NULL,PennController,3,_Trial_,Start,1741630850859,A,00,control,-,NULL
1741630877,6255c46fb45543d3c65e45dad17f7e34,PennController,3,0,experimental-trial,NULL,Text,item_goal,Print,NA,1741630851360,A,00,control,-,NULL
1741630877,6255c46fb45543d3c65e45dad17f7e34,PennController,3,0,experimental-trial,NULL,Scale,judgement,Choice,5,1741630853346,A,00,control,-,NULL
1741630877,6255c46fb45543d3c65e45dad17f7e34,PennController,3,0,experimental-trial,NULL,PennController,3,_Trial_,End,1741630853347,A,00,control,-,NULL
1741630877,6255c46fb45543d3c65e45dad17f7e34,PennController,2,0,experimental-trial,NULL,PennController,2,_Trial_,Start,1741630853347,A,0,control,-,NULL
1741630877,6255c46fb45543d3c65e45dad17f7e34,PennController,2,0,experimental-trial,NULL,Text,item_goal,Print,NA,1741630853851,A,0,control,-,NULL
1741630877,6255c46fb45543d3c65e45dad17f7e34,PennController,2,0,experimental-trial,NULL,Scale,judgement,Choice,1,1741630858474,A,0,control,-,NULL
1741630877,6255c46fb45543d3c65e45dad17f7e34,PennController,2,0,experimental-trial,NULL,PennController,2,_Trial_,End,1741630858475,A,0,control,-,NULL
1741630877,6255c46fb45543d3c65e45dad17f7e34,PennController,10,0,experimental-trial,NULL,PennController,10,_Trial_,Start,1741630858476,A,6,true,-,NULL
1741630877,6255c46fb45543d3c65e45dad17f7e34,PennController,10,0,experimental-trial,NULL,Text,item_goal,Print,NA,1741630858979,A,6,true,-,NULL
1741630877,6255c46fb45543d3c65e45dad17f7e34,PennController,10,0,experimental-trial,NULL,Scale,judgement,Choice,4,1741630860922,A,6,true,-,NULL
1741630877,6255c46fb45543d3c65e45dad17f7e34,PennController,10,0,experimental-trial,NULL,PennController,10,_Trial_,End,1741630860923,A,6,true,-,NULL
1741630877,6255c46fb45543d3c65e45dad17f7e34,PennController,5,0,experimental-trial,NULL,PennController,5,_Trial_,Start,1741630860924,A,1,true,neg,NULL
1741630877,6255c46fb45543d3c65e45dad17f7e34,PennController,5,0,experimental-trial,NULL,Text,item_goal,Print,NA,1741630861428,A,1,true,neg,NULL
1741630877,6255c46fb45543d3c65e45dad17f7e34,PennController,5,0,experimental-trial,NULL,Scale,judgement,Choice,4,1741630861811,A,1,true,neg,NULL
1741630877,6255c46fb45543d3c65e45dad17f7e34,PennController,5,0,experimental-trial,NULL,PennController,5,_Trial_,End,1741630861811,A,1,true,neg,NULL
1741630877,6255c46fb45543d3c65e45dad17f7e34,PennController,7,0,experimental-trial,NULL,PennController,7,_Trial_,Start,1741630861812,A,3,true,-,NULL
1741630877,6255c46fb45543d3c65e45dad17f7e34,PennController,7,0,experimental-trial,NULL,Text,item_goal,Print,NA,1741630862315,A,3,true,-,NULL
1741630877,6255c46fb45543d3c65e45dad17f7e34,PennController,7,0,experimental-trial,NULL,Scale,judgement,Choice,4,1741630862563,A,3,true,-,NULL
1741630877,6255c46fb45543d3c65e45dad17f7e34,PennController,7,0,experimental-trial,NULL,PennController,7,_Trial_,End,1741630862563,A,3,true,-,NULL
1741630877,6255c46fb45543d3c65e45dad17f7e34,PennController,6,0,experimental-trial,NULL,PennController,6,_Trial_,Start,1741630862564,A,2,true,-,NULL
1741630877,6255c46fb45543d3c65e45dad17f7e34,PennController,6,0,experimental-trial,NULL,Text,item_goal,Print,NA,1741630863065,A,2,true,-,NULL
1741630877,6255c46fb45543d3c65e45dad17f7e34,PennController,6,0,experimental-trial,NULL,Scale,judgement,Choice,4,1741630863267,A,2,true,-,NULL
1741630877,6255c46fb45543d3c65e45dad17f7e34,PennController,6,0,experimental-trial,NULL,PennController,6,_Trial_,End,1741630863268,A,2,true,-,NULL
1741630877,6255c46fb45543d3c65e45dad17f7e34,PennController,16,0,experimental-trial,NULL,PennController,16,_Trial_,Start,1741630863268,A,12,false,красивая,NULL
1741630877,6255c46fb45543d3c65e45dad17f7e34,PennController,16,0,experimental-trial,NULL,Text,item_goal,Print,NA,1741630863769,A,12,false,красивая,NULL
1741630877,6255c46fb45543d3c65e45dad17f7e34,PennController,16,0,experimental-trial,NULL,Scale,judgement,Choice,4,1741630865483,A,12,false,красивая,NULL
1741630877,6255c46fb45543d3c65e45dad17f7e34,PennController,16,0,experimental-trial,NULL,PennController,16,_Trial_,End,1741630865484,A,12,false,красивая,NULL
1741630877,6255c46fb45543d3c65e45dad17f7e34,PennController,9,0,experimental-trial,NULL,PennController,9,_Trial_,Start,1741630865485,A,5,true,ind,NULL
1741630877,6255c46fb45543d3c65e45dad17f7e34,PennController,9,0,experimental-trial,NULL,Text,item_goal,Print,NA,1741630865985,A,5,true,ind,NULL
1741630877,6255c46fb45543d3c65e45dad17f7e34,PennController,9,0,experimental-trial,NULL,Scale,judgement,Choice,4,1741630867636,A,5,true,ind,NULL
1741630877,6255c46fb45543d3c65e45dad17f7e34,PennController,9,0,experimental-trial,NULL,PennController,9,_Trial_,End,1741630867637,A,5,true,ind,NULL
1741630877,6255c46fb45543d3c65e45dad17f7e34,PennController,14,0,experimental-trial,NULL,PennController,14,_Trial_,Start,1741630867637,A,10,false,щедрая,NULL
1741630877,6255c46fb45543d3c65e45dad17f7e34,PennController,14,0,experimental-trial,NULL,Text,item_goal,Print,NA,1741630868140,A,10,false,щедрая,NULL
1741630877,6255c46fb45543d3c65e45dad17f7e34,PennController,14,0,experimental-trial,NULL,Scale,judgement,Choice,4,1741630869524,A,10,false,щедрая,NULL
1741630877,6255c46fb45543d3c65e45dad17f7e34,PennController,14,0,experimental-trial,NULL,PennController,14,_Trial_,End,1741630869525,A,10,false,щедрая,NULL
1741630877,6255c46fb45543d3c65e45dad17f7e34,PennController,4,0,experimental-trial,NULL,PennController,4,_Trial_,Start,1741630869525,A,000,control,-,NULL
1741630877,6255c46fb45543d3c65e45dad17f7e34,PennController,4,0,experimental-trial,NULL,Text,item_goal,Print,NA,1741630870028,A,000,control,-,NULL
1741630877,6255c46fb45543d3c65e45dad17f7e34,PennController,4,0,experimental-trial,NULL,Scale,judgement,Choice,4,1741630870380,A,000,control,-,NULL
1741630877,6255c46fb45543d3c65e45dad17f7e34,PennController,4,0,experimental-trial,NULL,PennController,4,_Trial_,End,1741630870381,A,000,control,-,NULL
1741630877,6255c46fb45543d3c65e45dad17f7e34,PennController,13,0,experimental-trial,NULL,PennController,13,_Trial_,Start,1741630870381,A,9,false,холодная,NULL
1741630877,6255c46fb45543d3c65e45dad17f7e34,PennController,13,0,experimental-trial,NULL,Text,item_goal,Print,NA,1741630870883,A,9,false,холодная,NULL
1741630877,6255c46fb45543d3c65e45dad17f7e34,PennController,13,0,experimental-trial,NULL,Scale,judgement,Choice,4,1741630871268,A,9,false,холодная,NULL
1741630877,6255c46fb45543d3c65e45dad17f7e34,PennController,13,0,experimental-trial,NULL,PennController,13,_Trial_,End,1741630871269,A,9,false,холодная,NULL
1741630877,6255c46fb45543d3c65e45dad17f7e34,PennController,15,0,experimental-trial,NULL,PennController,15,_Trial_,Start,1741630871270,A,11,false,светлая,NULL
1741630877,6255c46fb45543d3c65e45dad17f7e34,PennController,15,0,experimental-trial,NULL,Text,item_goal,Print,NA,1741630871774,A,11,false,светлая,NULL
1741630877,6255c46fb45543d3c65e45dad17f7e34,PennController,15,0,experimental-trial,NULL,Scale,judgement,Choice,2,1741630873180,A,11,false,светлая,NULL
1741630877,6255c46fb45543d3c65e45dad17f7e34,PennController,15,0,experimental-trial,NULL,PennController,15,_Trial_,End,1741630873181,A,11,false,светлая,NULL
1741630877,6255c46fb45543d3c65e45dad17f7e34,PennController,17,0,experimental-trial,NULL,PennController,17,_Trial_,Start,1741630873182,A,13,false,трудолюбивая,NULL
1741630877,6255c46fb45543d3c65e45dad17f7e34,PennController,17,0,experimental-trial,NULL,Text,item_goal,Print,NA,1741630873685,A,13,false,трудолюбивая,NULL
1741630877,6255c46fb45543d3c65e45dad17f7e34,PennController,17,0,experimental-trial,NULL,Scale,judgement,Choice,2,1741630873917,A,13,false,трудолюбивая,NULL
1741630877,6255c46fb45543d3c65e45dad17f7e34,PennController,17,0,experimental-trial,NULL,PennController,17,_Trial_,End,1741630873917,A,13,false,трудолюбивая,NULL
1741630877,6255c46fb45543d3c65e45dad17f7e34,PennController,8,0,experimental-trial,NULL,PennController,8,_Trial_,Start,1741630873918,A,4,true,cf,NULL
1741630877,6255c46fb45543d3c65e45dad17f7e34,PennController,8,0,experimental-trial,NULL,Text,item_goal,Print,NA,1741630874422,A,4,true,cf,NULL
1741630877,6255c46fb45543d3c65e45dad17f7e34,PennController,8,0,experimental-trial,NULL,Scale,judgement,Choice,2,1741630874788,A,4,true,cf,NULL
1741630877,6255c46fb45543d3c65e45dad17f7e34,PennController,8,0,experimental-trial,NULL,PennController,8,_Trial_,End,1741630874789,A,4,true,cf,NULL
1741630877,6255c46fb45543d3c65e45dad17f7e34,PennController,11,0,experimental-trial,NULL,PennController,11,_Trial_,Start,1741630874790,A,7,true,-,NULL
1741630877,6255c46fb45543d3c65e45dad17f7e34,PennController,11,0,experimental-trial,NULL,Text,item_goal,Print,NA,1741630875294,A,7,true,-,NULL
1741630877,6255c46fb45543d3c65e45dad17f7e34,PennController,11,0,experimental-trial,NULL,Scale,judgement,Choice,2,1741630876796,A,7,true,-,NULL
1741630877,6255c46fb45543d3c65e45dad17f7e34,PennController,11,0,experimental-trial,NULL,PennController,11,_Trial_,End,1741630876797,A,7,true,-,NULL
1741630877,6255c46fb45543d3c65e45dad17f7e34,PennController,12,0,experimental-trial,NULL,PennController,12,_Trial_,Start,1741630876798,A,8,false,грязная,NULL
1741630877,6255c46fb45543d3c65e45dad17f7e34,PennController,12,0,experimental-trial,NULL,Text,item_goal,Print,NA,1741630877300,A,8,false,грязная,NULL
1741630877,6255c46fb45543d3c65e45dad17f7e34,PennController,12,0,experimental-trial,NULL,Scale,judgement,Choice,2,1741630878125,A,8,false,грязная,NULL
1741630877,6255c46fb45543d3c65e45dad17f7e34,PennController,12,0,experimental-trial,NULL,PennController,12,_Trial_,End,1741630878126,A,8,false,грязная,NULL
#
# Results on Mon, 10 Mar 2025 18:24:01 GMT
# USER AGENT: Mozilla/5.0 (Windows NT 10.0; Win64; x64) AppleWebKit/537.36 (KHTML, like Gecko) Chrome/131.0.0.0 Safari/537.36 OPR/116.0.0.0 (Edition std-2)
# Design number was non-random = 0
#
# Columns below this comment are as follows:
# 1. Results reception time.
# 2. MD5 hash of participant's IP address.
# 3. Controller name.
# 4. Order number of item.
# 5. Inner element number.
# 6. Label.
# 7. Latin Square Group.
# 8. PennElementType.
# 9. PennElementName.
# 10. Parameter.
# 11. Value.
# 12. EventTime.
# 13. Comments.
1741631041,298b50b57d9822a675a7a13108a0f6dc,PennController,0,0,welcome,NULL,PennController,0,_Trial_,Start,1741630973381,NULL
1741631041,298b50b57d9822a675a7a13108a0f6dc,PennController,0,0,welcome,NULL,PennController,0,_Trial_,End,1741630985503,NULL
1741631041,298b50b57d9822a675a7a13108a0f6dc,PennController,1,0,mock-trial,NULL,PennController,1,_Trial_,Start,1741630985506,NULL
1741631041,298b50b57d9822a675a7a13108a0f6dc,PennController,1,0,mock-trial,NULL,Text,item_goal,Print,NA,1741630985508,NULL
1741631041,298b50b57d9822a675a7a13108a0f6dc,PennController,1,0,mock-trial,NULL,Scale,judgement,Choice,4,1741630991940,NULL
1741631041,298b50b57d9822a675a7a13108a0f6dc,PennController,1,0,mock-trial,NULL,PennController,1,_Trial_,End,1741630991942,NULL
# 13. group.
# 14. item.
# 15. filler.
# 16. adj.
# 17. Comments.
1741631041,298b50b57d9822a675a7a13108a0f6dc,PennController,6,0,experimental-trial,NULL,PennController,6,_Trial_,Start,1741630991944,A,2,true,-,NULL
1741631041,298b50b57d9822a675a7a13108a0f6dc,PennController,6,0,experimental-trial,NULL,Text,item_goal,Print,NA,1741630992446,A,2,true,-,NULL
1741631041,298b50b57d9822a675a7a13108a0f6dc,PennController,6,0,experimental-trial,NULL,Scale,judgement,Choice,3,1741630993737,A,2,true,-,NULL
1741631041,298b50b57d9822a675a7a13108a0f6dc,PennController,6,0,experimental-trial,NULL,PennController,6,_Trial_,End,1741630993739,A,2,true,-,NULL
1741631041,298b50b57d9822a675a7a13108a0f6dc,PennController,14,0,experimental-trial,NULL,PennController,14,_Trial_,Start,1741630993741,A,10,false,щедрая,NULL
1741631041,298b50b57d9822a675a7a13108a0f6dc,PennController,14,0,experimental-trial,NULL,Text,item_goal,Print,NA,1741630994244,A,10,false,щедрая,NULL
1741631041,298b50b57d9822a675a7a13108a0f6dc,PennController,14,0,experimental-trial,NULL,Scale,judgement,Choice,4,1741630997303,A,10,false,щедрая,NULL
1741631041,298b50b57d9822a675a7a13108a0f6dc,PennController,14,0,experimental-trial,NULL,PennController,14,_Trial_,End,1741630997305,A,10,false,щедрая,NULL
1741631041,298b50b57d9822a675a7a13108a0f6dc,PennController,12,0,experimental-trial,NULL,PennController,12,_Trial_,Start,1741630997306,A,8,false,грязная,NULL
1741631041,298b50b57d9822a675a7a13108a0f6dc,PennController,12,0,experimental-trial,NULL,Text,item_goal,Print,NA,1741630997808,A,8,false,грязная,NULL
1741631041,298b50b57d9822a675a7a13108a0f6dc,PennController,12,0,experimental-trial,NULL,Scale,judgement,Choice,2,1741630999364,A,8,false,грязная,NULL
1741631041,298b50b57d9822a675a7a13108a0f6dc,PennController,12,0,experimental-trial,NULL,PennController,12,_Trial_,End,1741630999366,A,8,false,грязная,NULL
1741631041,298b50b57d9822a675a7a13108a0f6dc,PennController,11,0,experimental-trial,NULL,PennController,11,_Trial_,Start,1741630999368,A,7,true,-,NULL
1741631041,298b50b57d9822a675a7a13108a0f6dc,PennController,11,0,experimental-trial,NULL,Text,item_goal,Print,NA,1741630999871,A,7,true,-,NULL
1741631041,298b50b57d9822a675a7a13108a0f6dc,PennController,11,0,experimental-trial,NULL,Scale,judgement,Choice,4,1741631001685,A,7,true,-,NULL
1741631041,298b50b57d9822a675a7a13108a0f6dc,PennController,11,0,experimental-trial,NULL,PennController,11,_Trial_,End,1741631001688,A,7,true,-,NULL
1741631041,298b50b57d9822a675a7a13108a0f6dc,PennController,8,0,experimental-trial,NULL,PennController,8,_Trial_,Start,1741631001689,A,4,true,cf,NULL
1741631041,298b50b57d9822a675a7a13108a0f6dc,PennController,8,0,experimental-trial,NULL,Text,item_goal,Print,NA,1741631002194,A,4,true,cf,NULL
1741631041,298b50b57d9822a675a7a13108a0f6dc,PennController,8,0,experimental-trial,NULL,Scale,judgement,Choice,4,1741631003382,A,4,true,cf,NULL
1741631041,298b50b57d9822a675a7a13108a0f6dc,PennController,8,0,experimental-trial,NULL,PennController,8,_Trial_,End,1741631003383,A,4,true,cf,NULL
1741631041,298b50b57d9822a675a7a13108a0f6dc,PennController,5,0,experimental-trial,NULL,PennController,5,_Trial_,Start,1741631003384,A,1,true,neg,NULL
1741631041,298b50b57d9822a675a7a13108a0f6dc,PennController,5,0,experimental-trial,NULL,Text,item_goal,Print,NA,1741631003891,A,1,true,neg,NULL
1741631041,298b50b57d9822a675a7a13108a0f6dc,PennController,5,0,experimental-trial,NULL,Scale,judgement,Choice,4,1741631019110,A,1,true,neg,NULL
1741631041,298b50b57d9822a675a7a13108a0f6dc,PennController,5,0,experimental-trial,NULL,PennController,5,_Trial_,End,1741631019112,A,1,true,neg,NULL
1741631041,298b50b57d9822a675a7a13108a0f6dc,PennController,13,0,experimental-trial,NULL,PennController,13,_Trial_,Start,1741631019114,A,9,false,холодная,NULL
1741631041,298b50b57d9822a675a7a13108a0f6dc,PennController,13,0,experimental-trial,NULL,Text,item_goal,Print,NA,1741631019617,A,9,false,холодная,NULL
1741631041,298b50b57d9822a675a7a13108a0f6dc,PennController,13,0,experimental-trial,NULL,Scale,judgement,Choice,3,1741631020807,A,9,false,холодная,NULL
1741631041,298b50b57d9822a675a7a13108a0f6dc,PennController,13,0,experimental-trial,NULL,PennController,13,_Trial_,End,1741631020808,A,9,false,холодная,NULL
1741631041,298b50b57d9822a675a7a13108a0f6dc,PennController,7,0,experimental-trial,NULL,PennController,7,_Trial_,Start,1741631020809,A,3,true,-,NULL
1741631041,298b50b57d9822a675a7a13108a0f6dc,PennController,7,0,experimental-trial,NULL,Text,item_goal,Print,NA,1741631021311,A,3,true,-,NULL
1741631041,298b50b57d9822a675a7a13108a0f6dc,PennController,7,0,experimental-trial,NULL,Scale,judgement,Choice,5,1741631022180,A,3,true,-,NULL
1741631041,298b50b57d9822a675a7a13108a0f6dc,PennController,7,0,experimental-trial,NULL,PennController,7,_Trial_,End,1741631022181,A,3,true,-,NULL
1741631041,298b50b57d9822a675a7a13108a0f6dc,PennController,3,0,experimental-trial,NULL,PennController,3,_Trial_,Start,1741631022182,A,00,control,-,NULL
1741631041,298b50b57d9822a675a7a13108a0f6dc,PennController,3,0,experimental-trial,NULL,Text,item_goal,Print,NA,1741631022688,A,00,control,-,NULL
1741631041,298b50b57d9822a675a7a13108a0f6dc,PennController,3,0,experimental-trial,NULL,Scale,judgement,Choice,2,1741631023989,A,00,control,-,NULL
1741631041,298b50b57d9822a675a7a13108a0f6dc,PennController,3,0,experimental-trial,NULL,PennController,3,_Trial_,End,1741631023992,A,00,control,-,NULL
1741631041,298b50b57d9822a675a7a13108a0f6dc,PennController,10,0,experimental-trial,NULL,PennController,10,_Trial_,Start,1741631023993,A,6,true,-,NULL
1741631041,298b50b57d9822a675a7a13108a0f6dc,PennController,10,0,experimental-trial,NULL,Text,item_goal,Print,NA,1741631024497,A,6,true,-,NULL
1741631041,298b50b57d9822a675a7a13108a0f6dc,PennController,10,0,experimental-trial,NULL,Scale,judgement,Choice,4,1741631025326,A,6,true,-,NULL
1741631041,298b50b57d9822a675a7a13108a0f6dc,PennController,10,0,experimental-trial,NULL,PennController,10,_Trial_,End,1741631025328,A,6,true,-,NULL
1741631041,298b50b57d9822a675a7a13108a0f6dc,PennController,4,0,experimental-trial,NULL,PennController,4,_Trial_,Start,1741631025329,A,000,control,-,NULL
1741631041,298b50b57d9822a675a7a13108a0f6dc,PennController,4,0,experimental-trial,NULL,Text,item_goal,Print,NA,1741631025834,A,000,control,-,NULL
1741631041,298b50b57d9822a675a7a13108a0f6dc,PennController,4,0,experimental-trial,NULL,Scale,judgement,Choice,4,1741631028659,A,000,control,-,NULL
1741631041,298b50b57d9822a675a7a13108a0f6dc,PennController,4,0,experimental-trial,NULL,PennController,4,_Trial_,End,1741631028661,A,000,control,-,NULL
1741631041,298b50b57d9822a675a7a13108a0f6dc,PennController,15,0,experimental-trial,NULL,PennController,15,_Trial_,Start,1741631028662,A,11,false,светлая,NULL
1741631041,298b50b57d9822a675a7a13108a0f6dc,PennController,15,0,experimental-trial,NULL,Text,item_goal,Print,NA,1741631029165,A,11,false,светлая,NULL
1741631041,298b50b57d9822a675a7a13108a0f6dc,PennController,15,0,experimental-trial,NULL,Scale,judgement,Choice,5,1741631031793,A,11,false,светлая,NULL
1741631041,298b50b57d9822a675a7a13108a0f6dc,PennController,15,0,experimental-trial,NULL,PennController,15,_Trial_,End,1741631031795,A,11,false,светлая,NULL
1741631041,298b50b57d9822a675a7a13108a0f6dc,PennController,17,0,experimental-trial,NULL,PennController,17,_Trial_,Start,1741631031796,A,13,false,трудолюбивая,NULL
1741631041,298b50b57d9822a675a7a13108a0f6dc,PennController,17,0,experimental-trial,NULL,Text,item_goal,Print,NA,1741631032302,A,13,false,трудолюбивая,NULL
1741631041,298b50b57d9822a675a7a13108a0f6dc,PennController,17,0,experimental-trial,NULL,Scale,judgement,Choice,4,1741631033166,A,13,false,трудолюбивая,NULL
1741631041,298b50b57d9822a675a7a13108a0f6dc,PennController,17,0,experimental-trial,NULL,PennController,17,_Trial_,End,1741631033167,A,13,false,трудолюбивая,NULL
1741631041,298b50b57d9822a675a7a13108a0f6dc,PennController,9,0,experimental-trial,NULL,PennController,9,_Trial_,Start,1741631033168,A,5,true,ind,NULL
1741631041,298b50b57d9822a675a7a13108a0f6dc,PennController,9,0,experimental-trial,NULL,Text,item_goal,Print,NA,1741631033674,A,5,true,ind,NULL
1741631041,298b50b57d9822a675a7a13108a0f6dc,PennController,9,0,experimental-trial,NULL,Scale,judgement,Choice,3,1741631035103,A,5,true,ind,NULL
1741631041,298b50b57d9822a675a7a13108a0f6dc,PennController,9,0,experimental-trial,NULL,PennController,9,_Trial_,End,1741631035104,A,5,true,ind,NULL
1741631041,298b50b57d9822a675a7a13108a0f6dc,PennController,2,0,experimental-trial,NULL,PennController,2,_Trial_,Start,1741631035105,A,0,control,-,NULL
1741631041,298b50b57d9822a675a7a13108a0f6dc,PennController,2,0,experimental-trial,NULL,Text,item_goal,Print,NA,1741631035609,A,0,control,-,NULL
1741631041,298b50b57d9822a675a7a13108a0f6dc,PennController,2,0,experimental-trial,NULL,Scale,judgement,Choice,4,1741631036916,A,0,control,-,NULL
1741631041,298b50b57d9822a675a7a13108a0f6dc,PennController,2,0,experimental-trial,NULL,PennController,2,_Trial_,End,1741631036917,A,0,control,-,NULL
1741631041,298b50b57d9822a675a7a13108a0f6dc,PennController,16,0,experimental-trial,NULL,PennController,16,_Trial_,Start,1741631036918,A,12,false,красивая,NULL
1741631041,298b50b57d9822a675a7a13108a0f6dc,PennController,16,0,experimental-trial,NULL,Text,item_goal,Print,NA,1741631037421,A,12,false,красивая,NULL
1741631041,298b50b57d9822a675a7a13108a0f6dc,PennController,16,0,experimental-trial,NULL,Scale,judgement,Choice,4,1741631040969,A,12,false,красивая,NULL
1741631041,298b50b57d9822a675a7a13108a0f6dc,PennController,16,0,experimental-trial,NULL,PennController,16,_Trial_,End,1741631040971,A,12,false,красивая,NULL
#
# Results on Mon, 10 Mar 2025 18:24:14 GMT
# USER AGENT: Mozilla/5.0 (Windows NT 10.0; Win64; x64) AppleWebKit/537.36 (KHTML, like Gecko) Chrome/132.0.0.0 YaBrowser/25.2.0.0 Safari/537.36
# Design number was non-random = 3
#
# Columns below this comment are as follows:
# 1. Results reception time.
# 2. MD5 hash of participant's IP address.
# 3. Controller name.
# 4. Order number of item.
# 5. Inner element number.
# 6. Label.
# 7. Latin Square Group.
# 8. PennElementType.
# 9. PennElementName.
# 10. Parameter.
# 11. Value.
# 12. EventTime.
# 13. Comments.
1741631054,c2a9fe125dbd753a50ab958c8b2dec1d,PennController,0,0,welcome,NULL,PennController,0,_Trial_,Start,1741630947378,NULL
1741631054,c2a9fe125dbd753a50ab958c8b2dec1d,PennController,0,0,welcome,NULL,PennController,0,_Trial_,End,1741630956452,NULL
1741631054,c2a9fe125dbd753a50ab958c8b2dec1d,PennController,1,0,mock-trial,NULL,PennController,1,_Trial_,Start,1741630956454,NULL
1741631054,c2a9fe125dbd753a50ab958c8b2dec1d,PennController,1,0,mock-trial,NULL,Text,item_goal,Print,NA,1741630956455,NULL
1741631054,c2a9fe125dbd753a50ab958c8b2dec1d,PennController,1,0,mock-trial,NULL,Scale,judgement,Choice,5,1741630960780,NULL
1741631054,c2a9fe125dbd753a50ab958c8b2dec1d,PennController,1,0,mock-trial,NULL,PennController,1,_Trial_,End,1741630960781,NULL
# 13. group.
# 14. item.
# 15. filler.
# 16. adj.
# 17. Comments.
1741631054,c2a9fe125dbd753a50ab958c8b2dec1d,PennController,17,0,experimental-trial,NULL,PennController,17,_Trial_,Start,1741630960782,D,19,false,высокая,NULL
1741631054,c2a9fe125dbd753a50ab958c8b2dec1d,PennController,17,0,experimental-trial,NULL,Text,item_goal,Print,NA,1741630961286,D,19,false,высокая,NULL
1741631054,c2a9fe125dbd753a50ab958c8b2dec1d,PennController,17,0,experimental-trial,NULL,Scale,judgement,Choice,3,1741630965580,D,19,false,высокая,NULL
1741631054,c2a9fe125dbd753a50ab958c8b2dec1d,PennController,17,0,experimental-trial,NULL,PennController,17,_Trial_,End,1741630965581,D,19,false,высокая,NULL
1741631054,c2a9fe125dbd753a50ab958c8b2dec1d,PennController,13,0,experimental-trial,NULL,PennController,13,_Trial_,Start,1741630965582,D,15,false,злая,NULL
1741631054,c2a9fe125dbd753a50ab958c8b2dec1d,PennController,13,0,experimental-trial,NULL,Text,item_goal,Print,NA,1741630966085,D,15,false,злая,NULL
1741631054,c2a9fe125dbd753a50ab958c8b2dec1d,PennController,13,0,experimental-trial,NULL,Scale,judgement,Choice,3,1741630971292,D,15,false,злая,NULL
1741631054,c2a9fe125dbd753a50ab958c8b2dec1d,PennController,13,0,experimental-trial,NULL,PennController,13,_Trial_,End,1741630971293,D,15,false,злая,NULL
1741631054,c2a9fe125dbd753a50ab958c8b2dec1d,PennController,9,0,experimental-trial,NULL,PennController,9,_Trial_,Start,1741630971294,D,5,true,ind,NULL
1741631054,c2a9fe125dbd753a50ab958c8b2dec1d,PennController,9,0,experimental-trial,NULL,Text,item_goal,Print,NA,1741630971796,D,5,true,ind,NULL
1741631054,c2a9fe125dbd753a50ab958c8b2dec1d,PennController,9,0,experimental-trial,NULL,Scale,judgement,Choice,3,1741630977156,D,5,true,ind,NULL
1741631054,c2a9fe125dbd753a50ab958c8b2dec1d,PennController,9,0,experimental-trial,NULL,PennController,9,_Trial_,End,1741630977157,D,5,true,ind,NULL
1741631054,c2a9fe125dbd753a50ab958c8b2dec1d,PennController,7,0,experimental-trial,NULL,PennController,7,_Trial_,Start,1741630977158,D,3,true,-,NULL
1741631054,c2a9fe125dbd753a50ab958c8b2dec1d,PennController,7,0,experimental-trial,NULL,Text,item_goal,Print,NA,1741630977661,D,3,true,-,NULL
1741631054,c2a9fe125dbd753a50ab958c8b2dec1d,PennController,7,0,experimental-trial,NULL,Scale,judgement,Choice,5,1741630983997,D,3,true,-,NULL
1741631054,c2a9fe125dbd753a50ab958c8b2dec1d,PennController,7,0,experimental-trial,NULL,PennController,7,_Trial_,End,1741630983998,D,3,true,-,NULL
1741631054,c2a9fe125dbd753a50ab958c8b2dec1d,PennController,3,0,experimental-trial,NULL,PennController,3,_Trial_,Start,1741630983999,D,00,control,-,NULL
1741631054,c2a9fe125dbd753a50ab958c8b2dec1d,PennController,3,0,experimental-trial,NULL,Text,item_goal,Print,NA,1741630984501,D,00,control,-,NULL
1741631054,c2a9fe125dbd753a50ab958c8b2dec1d,PennController,3,0,experimental-trial,NULL,Scale,judgement,Choice,5,1741630988797,D,00,control,-,NULL
1741631054,c2a9fe125dbd753a50ab958c8b2dec1d,PennController,3,0,experimental-trial,NULL,PennController,3,_Trial_,End,1741630988798,D,00,control,-,NULL
1741631054,c2a9fe125dbd753a50ab958c8b2dec1d,PennController,2,0,experimental-trial,NULL,PennController,2,_Trial_,Start,1741630988799,D,0,control,-,NULL
1741631054,c2a9fe125dbd753a50ab958c8b2dec1d,PennController,2,0,experimental-trial,NULL,Text,item_goal,Print,NA,1741630989300,D,0,control,-,NULL
1741631054,c2a9fe125dbd753a50ab958c8b2dec1d,PennController,2,0,experimental-trial,NULL,Scale,judgement,Choice,1,1741630996133,D,0,control,-,NULL
1741631054,c2a9fe125dbd753a50ab958c8b2dec1d,PennController,2,0,experimental-trial,NULL,PennController,2,_Trial_,End,1741630996134,D,0,control,-,NULL
1741631054,c2a9fe125dbd753a50ab958c8b2dec1d,PennController,6,0,experimental-trial,NULL,PennController,6,_Trial_,Start,1741630996134,D,2,true,-,NULL
1741631054,c2a9fe125dbd753a50ab958c8b2dec1d,PennController,6,0,experimental-trial,NULL,Text,item_goal,Print,NA,1741630996638,D,2,true,-,NULL
1741631054,c2a9fe125dbd753a50ab958c8b2dec1d,PennController,6,0,experimental-trial,NULL,Scale,judgement,Choice,5,1741631001181,D,2,true,-,NULL
1741631054,c2a9fe125dbd753a50ab958c8b2dec1d,PennController,6,0,experimental-trial,NULL,PennController,6,_Trial_,End,1741631001182,D,2,true,-,NULL
1741631054,c2a9fe125dbd753a50ab958c8b2dec1d,PennController,5,0,experimental-trial,NULL,PennController,5,_Trial_,Start,1741631001183,D,1,true,pos,NULL
1741631054,c2a9fe125dbd753a50ab958c8b2dec1d,PennController,5,0,experimental-trial,NULL,Text,item_goal,Print,NA,1741631001687,D,1,true,pos,NULL
1741631054,c2a9fe125dbd753a50ab958c8b2dec1d,PennController,5,0,experimental-trial,NULL,Scale,judgement,Choice,5,1741631004686,D,1,true,pos,NULL
1741631054,c2a9fe125dbd753a50ab958c8b2dec1d,PennController,5,0,experimental-trial,NULL,PennController,5,_Trial_,End,1741631004686,D,1,true,pos,NULL
1741631054,c2a9fe125dbd753a50ab958c8b2dec1d,PennController,8,0,experimental-trial,NULL,PennController,8,_Trial_,Start,1741631004687,D,4,true,cf,NULL
1741631054,c2a9fe125dbd753a50ab958c8b2dec1d,PennController,8,0,experimental-trial,NULL,Text,item_goal,Print,NA,1741631005188,D,4,true,cf,NULL
1741631054,c2a9fe125dbd753a50ab958c8b2dec1d,PennController,8,0,experimental-trial,NULL,Scale,judgement,Choice,3,1741631012101,D,4,true,cf,NULL
1741631054,c2a9fe125dbd753a50ab958c8b2dec1d,PennController,8,0,experimental-trial,NULL,PennController,8,_Trial_,End,1741631012102,D,4,true,cf,NULL
1741631054,c2a9fe125dbd753a50ab958c8b2dec1d,PennController,4,0,experimental-trial,NULL,PennController,4,_Trial_,Start,1741631012103,D,000,control,-,NULL
1741631054,c2a9fe125dbd753a50ab958c8b2dec1d,PennController,4,0,experimental-trial,NULL,Text,item_goal,Print,NA,1741631012607,D,000,control,-,NULL
1741631054,c2a9fe125dbd753a50ab958c8b2dec1d,PennController,4,0,experimental-trial,NULL,Scale,judgement,Choice,5,1741631015438,D,000,control,-,NULL
1741631054,c2a9fe125dbd753a50ab958c8b2dec1d,PennController,4,0,experimental-trial,NULL,PennController,4,_Trial_,End,1741631015439,D,000,control,-,NULL
1741631054,c2a9fe125dbd753a50ab958c8b2dec1d,PennController,15,0,experimental-trial,NULL,PennController,15,_Trial_,Start,1741631015440,D,17,false,храбрая,NULL
1741631054,c2a9fe125dbd753a50ab958c8b2dec1d,PennController,15,0,experimental-trial,NULL,Text,item_goal,Print,NA,1741631015945,D,17,false,храбрая,NULL
1741631054,c2a9fe125dbd753a50ab958c8b2dec1d,PennController,15,0,experimental-trial,NULL,Scale,judgement,Choice,3,1741631019919,D,17,false,храбрая,NULL
1741631054,c2a9fe125dbd753a50ab958c8b2dec1d,PennController,15,0,experimental-trial,NULL,PennController,15,_Trial_,End,1741631019919,D,17,false,храбрая,NULL
1741631054,c2a9fe125dbd753a50ab958c8b2dec1d,PennController,10,0,experimental-trial,NULL,PennController,10,_Trial_,Start,1741631019920,D,6,true,-,NULL
1741631054,c2a9fe125dbd753a50ab958c8b2dec1d,PennController,10,0,experimental-trial,NULL,Text,item_goal,Print,NA,1741631020423,D,6,true,-,NULL
1741631054,c2a9fe125dbd753a50ab958c8b2dec1d,PennController,10,0,experimental-trial,NULL,Scale,judgement,Choice,3,1741631029199,D,6,true,-,NULL
1741631054,c2a9fe125dbd753a50ab958c8b2dec1d,PennController,10,0,experimental-trial,NULL,PennController,10,_Trial_,End,1741631029200,D,6,true,-,NULL
1741631054,c2a9fe125dbd753a50ab958c8b2dec1d,PennController,11,0,experimental-trial,NULL,PennController,11,_Trial_,Start,1741631029201,D,7,true,-,NULL
1741631054,c2a9fe125dbd753a50ab958c8b2dec1d,PennController,11,0,experimental-trial,NULL,Text,item_goal,Print,NA,1741631029705,D,7,true,-,NULL
1741631054,c2a9fe125dbd753a50ab958c8b2dec1d,PennController,11,0,experimental-trial,NULL,Scale,judgement,Choice,5,1741631035862,D,7,true,-,NULL
1741631054,c2a9fe125dbd753a50ab958c8b2dec1d,PennController,11,0,experimental-trial,NULL,PennController,11,_Trial_,End,1741631035863,D,7,true,-,NULL
1741631054,c2a9fe125dbd753a50ab958c8b2dec1d,PennController,16,0,experimental-trial,NULL,PennController,16,_Trial_,Start,1741631035864,D,18,false,тяжёлая,NULL
1741631054,c2a9fe125dbd753a50ab958c8b2dec1d,PennController,16,0,experimental-trial,NULL,Text,item_goal,Print,NA,1741631036369,D,18,false,тяжёлая,NULL
1741631054,c2a9fe125dbd753a50ab958c8b2dec1d,PennController,16,0,experimental-trial,NULL,Scale,judgement,Choice,3,1741631041039,D,18,false,тяжёлая,NULL
1741631054,c2a9fe125dbd753a50ab958c8b2dec1d,PennController,16,0,experimental-trial,NULL,PennController,16,_Trial_,End,1741631041040,D,18,false,тяжёлая,NULL
1741631054,c2a9fe125dbd753a50ab958c8b2dec1d,PennController,14,0,experimental-trial,NULL,PennController,14,_Trial_,Start,1741631041040,D,16,false,тупая,NULL
1741631054,c2a9fe125dbd753a50ab958c8b2dec1d,PennController,14,0,experimental-trial,NULL,Text,item_goal,Print,NA,1741631041541,D,16,false,тупая,NULL
1741631054,c2a9fe125dbd753a50ab958c8b2dec1d,PennController,14,0,experimental-trial,NULL,Scale,judgement,Choice,3,1741631048431,D,16,false,тупая,NULL
1741631054,c2a9fe125dbd753a50ab958c8b2dec1d,PennController,14,0,experimental-trial,NULL,PennController,14,_Trial_,End,1741631048432,D,16,false,тупая,NULL
1741631054,c2a9fe125dbd753a50ab958c8b2dec1d,PennController,12,0,experimental-trial,NULL,PennController,12,_Trial_,Start,1741631048432,D,14,false,медленная,NULL
1741631054,c2a9fe125dbd753a50ab958c8b2dec1d,PennController,12,0,experimental-trial,NULL,Text,item_goal,Print,NA,1741631048939,D,14,false,медленная,NULL
1741631054,c2a9fe125dbd753a50ab958c8b2dec1d,PennController,12,0,experimental-trial,NULL,Scale,judgement,Choice,3,1741631054488,D,14,false,медленная,NULL
1741631054,c2a9fe125dbd753a50ab958c8b2dec1d,PennController,12,0,experimental-trial,NULL,PennController,12,_Trial_,End,1741631054489,D,14,false,медленная,NULL
#
# Results on Mon, 10 Mar 2025 18:24:15 GMT
# USER AGENT: Mozilla/5.0 (Windows NT 10.0; Win64; x64) AppleWebKit/537.36 (KHTML, like Gecko) Chrome/109.0.0.0 Safari/537.36
# Design number was non-random = 3
#
# Columns below this comment are as follows:
# 1. Results reception time.
# 2. MD5 hash of participant's IP address.
# 3. Controller name.
# 4. Order number of item.
# 5. Inner element number.
# 6. Label.
# 7. Latin Square Group.
# 8. PennElementType.
# 9. PennElementName.
# 10. Parameter.
# 11. Value.
# 12. EventTime.
# 13. Comments.
1741631055,b6dd872ee5873d99338eed9be3b09ef5,PennController,0,0,welcome,NULL,PennController,0,_Trial_,Start,1741627377694,NULL
1741631055,b6dd872ee5873d99338eed9be3b09ef5,PennController,0,0,welcome,NULL,PennController,0,_Trial_,End,1741627385269,NULL
1741631055,b6dd872ee5873d99338eed9be3b09ef5,PennController,1,0,mock-trial,NULL,PennController,1,_Trial_,Start,1741627385273,NULL
1741631055,b6dd872ee5873d99338eed9be3b09ef5,PennController,1,0,mock-trial,NULL,Text,item_goal,Print,NA,1741627385275,NULL
1741631055,b6dd872ee5873d99338eed9be3b09ef5,PennController,1,0,mock-trial,NULL,Scale,judgement,Choice,3,1741627392200,NULL
1741631055,b6dd872ee5873d99338eed9be3b09ef5,PennController,1,0,mock-trial,NULL,PennController,1,_Trial_,End,1741627392203,NULL
# 13. group.
# 14. item.
# 15. filler.
# 16. adj.
# 17. Comments.
1741631055,b6dd872ee5873d99338eed9be3b09ef5,PennController,9,0,experimental-trial,NULL,PennController,9,_Trial_,Start,1741627392206,D,5,true,ind,NULL
1741631055,b6dd872ee5873d99338eed9be3b09ef5,PennController,9,0,experimental-trial,NULL,Text,item_goal,Print,NA,1741627392711,D,5,true,ind,NULL
1741631055,b6dd872ee5873d99338eed9be3b09ef5,PennController,9,0,experimental-trial,NULL,Scale,judgement,Choice,3,1741627399420,D,5,true,ind,NULL
1741631055,b6dd872ee5873d99338eed9be3b09ef5,PennController,9,0,experimental-trial,NULL,PennController,9,_Trial_,End,1741627399428,D,5,true,ind,NULL
1741631055,b6dd872ee5873d99338eed9be3b09ef5,PennController,8,0,experimental-trial,NULL,PennController,8,_Trial_,Start,1741627399431,D,4,true,cf,NULL
1741631055,b6dd872ee5873d99338eed9be3b09ef5,PennController,8,0,experimental-trial,NULL,Text,item_goal,Print,NA,1741627399934,D,4,true,cf,NULL
1741631055,b6dd872ee5873d99338eed9be3b09ef5,PennController,8,0,experimental-trial,NULL,Scale,judgement,Choice,3,1741627409580,D,4,true,cf,NULL
1741631055,b6dd872ee5873d99338eed9be3b09ef5,PennController,8,0,experimental-trial,NULL,PennController,8,_Trial_,End,1741627409583,D,4,true,cf,NULL
1741631055,b6dd872ee5873d99338eed9be3b09ef5,PennController,14,0,experimental-trial,NULL,PennController,14,_Trial_,Start,1741627409585,D,16,false,тупая,NULL
1741631055,b6dd872ee5873d99338eed9be3b09ef5,PennController,14,0,experimental-trial,NULL,Text,item_goal,Print,NA,1741627410090,D,16,false,тупая,NULL
1741631055,b6dd872ee5873d99338eed9be3b09ef5,PennController,14,0,experimental-trial,NULL,Scale,judgement,Choice,3,1741627416644,D,16,false,тупая,NULL
1741631055,b6dd872ee5873d99338eed9be3b09ef5,PennController,14,0,experimental-trial,NULL,PennController,14,_Trial_,End,1741627416646,D,16,false,тупая,NULL
1741631055,b6dd872ee5873d99338eed9be3b09ef5,PennController,16,0,experimental-trial,NULL,PennController,16,_Trial_,Start,1741627416648,D,18,false,тяжёлая,NULL
1741631055,b6dd872ee5873d99338eed9be3b09ef5,PennController,16,0,experimental-trial,NULL,Text,item_goal,Print,NA,1741627417154,D,18,false,тяжёлая,NULL
1741631055,b6dd872ee5873d99338eed9be3b09ef5,PennController,16,0,experimental-trial,NULL,Scale,judgement,Choice,3,1741627425852,D,18,false,тяжёлая,NULL
1741631055,b6dd872ee5873d99338eed9be3b09ef5,PennController,16,0,experimental-trial,NULL,PennController,16,_Trial_,End,1741627425855,D,18,false,тяжёлая,NULL
1741631055,b6dd872ee5873d99338eed9be3b09ef5,PennController,17,0,experimental-trial,NULL,PennController,17,_Trial_,Start,1741627425857,D,19,false,высокая,NULL
1741631055,b6dd872ee5873d99338eed9be3b09ef5,PennController,17,0,experimental-trial,NULL,Text,item_goal,Print,NA,1741627426363,D,19,false,высокая,NULL
1741631055,b6dd872ee5873d99338eed9be3b09ef5,PennController,17,0,experimental-trial,NULL,Scale,judgement,Choice,3,1741627429445,D,19,false,высокая,NULL
1741631055,b6dd872ee5873d99338eed9be3b09ef5,PennController,17,0,experimental-trial,NULL,PennController,17,_Trial_,End,1741627429448,D,19,false,высокая,NULL
1741631055,b6dd872ee5873d99338eed9be3b09ef5,PennController,10,0,experimental-trial,NULL,PennController,10,_Trial_,Start,1741627429450,D,6,true,-,NULL
1741631055,b6dd872ee5873d99338eed9be3b09ef5,PennController,10,0,experimental-trial,NULL,Text,item_goal,Print,NA,1741627429956,D,6,true,-,NULL
1741631055,b6dd872ee5873d99338eed9be3b09ef5,PennController,10,0,experimental-trial,NULL,Scale,judgement,Choice,3,1741627433020,D,6,true,-,NULL
1741631055,b6dd872ee5873d99338eed9be3b09ef5,PennController,10,0,experimental-trial,NULL,PennController,10,_Trial_,End,1741627433022,D,6,true,-,NULL
1741631055,b6dd872ee5873d99338eed9be3b09ef5,PennController,7,0,experimental-trial,NULL,PennController,7,_Trial_,Start,1741627433023,D,3,true,-,NULL
1741631055,b6dd872ee5873d99338eed9be3b09ef5,PennController,7,0,experimental-trial,NULL,Text,item_goal,Print,NA,1741627433525,D,3,true,-,NULL
1741631055,b6dd872ee5873d99338eed9be3b09ef5,PennController,7,0,experimental-trial,NULL,Scale,judgement,Choice,3,1741627436064,D,3,true,-,NULL
1741631055,b6dd872ee5873d99338eed9be3b09ef5,PennController,7,0,experimental-trial,NULL,PennController,7,_Trial_,End,1741627436067,D,3,true,-,NULL
1741631055,b6dd872ee5873d99338eed9be3b09ef5,PennController,12,0,experimental-trial,NULL,PennController,12,_Trial_,Start,1741627436069,D,14,false,медленная,NULL
1741631055,b6dd872ee5873d99338eed9be3b09ef5,PennController,12,0,experimental-trial,NULL,Text,item_goal,Print,NA,1741627436572,D,14,false,медленная,NULL
1741631055,b6dd872ee5873d99338eed9be3b09ef5,PennController,12,0,experimental-trial,NULL,Scale,judgement,Choice,3,1741627438216,D,14,false,медленная,NULL
1741631055,b6dd872ee5873d99338eed9be3b09ef5,PennController,12,0,experimental-trial,NULL,PennController,12,_Trial_,End,1741627438219,D,14,false,медленная,NULL
1741631055,b6dd872ee5873d99338eed9be3b09ef5,PennController,3,0,experimental-trial,NULL,PennController,3,_Trial_,Start,1741627438221,D,00,control,-,NULL
1741631055,b6dd872ee5873d99338eed9be3b09ef5,PennController,3,0,experimental-trial,NULL,Text,item_goal,Print,NA,1741627438726,D,00,control,-,NULL
1741631055,b6dd872ee5873d99338eed9be3b09ef5,PennController,3,0,experimental-trial,NULL,Scale,judgement,Choice,3,1741627440964,D,00,control,-,NULL
1741631055,b6dd872ee5873d99338eed9be3b09ef5,PennController,3,0,experimental-trial,NULL,PennController,3,_Trial_,End,1741627440967,D,00,control,-,NULL
1741631055,b6dd872ee5873d99338eed9be3b09ef5,PennController,13,0,experimental-trial,NULL,PennController,13,_Trial_,Start,1741627440969,D,15,false,злая,NULL
1741631055,b6dd872ee5873d99338eed9be3b09ef5,PennController,13,0,experimental-trial,NULL,Text,item_goal,Print,NA,1741627441475,D,15,false,злая,NULL
1741631055,b6dd872ee5873d99338eed9be3b09ef5,PennController,13,0,experimental-trial,NULL,Scale,judgement,Choice,3,1741627443300,D,15,false,злая,NULL
1741631055,b6dd872ee5873d99338eed9be3b09ef5,PennController,13,0,experimental-trial,NULL,PennController,13,_Trial_,End,1741627443302,D,15,false,злая,NULL
1741631055,b6dd872ee5873d99338eed9be3b09ef5,PennController,2,0,experimental-trial,NULL,PennController,2,_Trial_,Start,1741627443303,D,0,control,-,NULL
1741631055,b6dd872ee5873d99338eed9be3b09ef5,PennController,2,0,experimental-trial,NULL,Text,item_goal,Print,NA,1741627443806,D,0,control,-,NULL
1741631055,b6dd872ee5873d99338eed9be3b09ef5,PennController,2,0,experimental-trial,NULL,Scale,judgement,Choice,3,1741627445072,D,0,control,-,NULL
1741631055,b6dd872ee5873d99338eed9be3b09ef5,PennController,2,0,experimental-trial,NULL,PennController,2,_Trial_,End,1741627445076,D,0,control,-,NULL
1741631055,b6dd872ee5873d99338eed9be3b09ef5,PennController,15,0,experimental-trial,NULL,PennController,15,_Trial_,Start,1741627445079,D,17,false,храбрая,NULL
1741631055,b6dd872ee5873d99338eed9be3b09ef5,PennController,15,0,experimental-trial,NULL,Text,item_goal,Print,NA,1741627445586,D,17,false,храбрая,NULL
1741631055,b6dd872ee5873d99338eed9be3b09ef5,PennController,15,0,experimental-trial,NULL,Scale,judgement,Choice,3,1741627447336,D,17,false,храбрая,NULL
1741631055,b6dd872ee5873d99338eed9be3b09ef5,PennController,15,0,experimental-trial,NULL,PennController,15,_Trial_,End,1741627447339,D,17,false,храбрая,NULL
1741631055,b6dd872ee5873d99338eed9be3b09ef5,PennController,4,0,experimental-trial,NULL,PennController,4,_Trial_,Start,1741627447341,D,000,control,-,NULL
1741631055,b6dd872ee5873d99338eed9be3b09ef5,PennController,4,0,experimental-trial,NULL,Text,item_goal,Print,NA,1741627447846,D,000,control,-,NULL
1741631055,b6dd872ee5873d99338eed9be3b09ef5,PennController,4,0,experimental-trial,NULL,Scale,judgement,Choice,3,1741627448780,D,000,control,-,NULL
1741631055,b6dd872ee5873d99338eed9be3b09ef5,PennController,4,0,experimental-trial,NULL,PennController,4,_Trial_,End,1741627448783,D,000,control,-,NULL
1741631055,b6dd872ee5873d99338eed9be3b09ef5,PennController,5,0,experimental-trial,NULL,PennController,5,_Trial_,Start,1741627448785,D,1,true,pos,NULL
1741631055,b6dd872ee5873d99338eed9be3b09ef5,PennController,5,0,experimental-trial,NULL,Text,item_goal,Print,NA,1741627449290,D,1,true,pos,NULL
1741631055,b6dd872ee5873d99338eed9be3b09ef5,PennController,5,0,experimental-trial,NULL,Scale,judgement,Choice,3,1741627450228,D,1,true,pos,NULL
1741631055,b6dd872ee5873d99338eed9be3b09ef5,PennController,5,0,experimental-trial,NULL,PennController,5,_Trial_,End,1741627450231,D,1,true,pos,NULL
1741631055,b6dd872ee5873d99338eed9be3b09ef5,PennController,6,0,experimental-trial,NULL,PennController,6,_Trial_,Start,1741627450233,D,2,true,-,NULL
1741631055,b6dd872ee5873d99338eed9be3b09ef5,PennController,6,0,experimental-trial,NULL,Text,item_goal,Print,NA,1741627450736,D,2,true,-,NULL
1741631055,b6dd872ee5873d99338eed9be3b09ef5,PennController,6,0,experimental-trial,NULL,Scale,judgement,Choice,3,1741627451864,D,2,true,-,NULL
1741631055,b6dd872ee5873d99338eed9be3b09ef5,PennController,6,0,experimental-trial,NULL,PennController,6,_Trial_,End,1741627451866,D,2,true,-,NULL
1741631055,b6dd872ee5873d99338eed9be3b09ef5,PennController,11,0,experimental-trial,NULL,PennController,11,_Trial_,Start,1741627451869,D,7,true,-,NULL
1741631055,b6dd872ee5873d99338eed9be3b09ef5,PennController,11,0,experimental-trial,NULL,Text,item_goal,Print,NA,1741627452376,D,7,true,-,NULL
1741631055,b6dd872ee5873d99338eed9be3b09ef5,PennController,11,0,experimental-trial,NULL,Scale,judgement,Choice,3,1741627453640,D,7,true,-,NULL
1741631055,b6dd872ee5873d99338eed9be3b09ef5,PennController,11,0,experimental-trial,NULL,PennController,11,_Trial_,End,1741627453642,D,7,true,-,NULL
#
# Results on Mon, 10 Mar 2025 18:24:31 GMT
# USER AGENT: Mozilla/5.0 (Windows NT 10.0; Win64; x64) AppleWebKit/537.36 (KHTML, like Gecko) Chrome/132.0.0.0 YaBrowser/25.2.0.0 Safari/537.36
# Design number was non-random = 0
#
# Columns below this comment are as follows:
# 1. Results reception time.
# 2. MD5 hash of participant's IP address.
# 3. Controller name.
# 4. Order number of item.
# 5. Inner element number.
# 6. Label.
# 7. Latin Square Group.
# 8. PennElementType.
# 9. PennElementName.
# 10. Parameter.
# 11. Value.
# 12. EventTime.
# 13. Comments.
1741631071,0303f65310d4e856d9fe219b56dcba54,PennController,0,0,welcome,NULL,PennController,0,_Trial_,Start,1741630952838,NULL
1741631071,0303f65310d4e856d9fe219b56dcba54,PennController,0,0,welcome,NULL,PennController,0,_Trial_,End,1741630970062,NULL
1741631071,0303f65310d4e856d9fe219b56dcba54,PennController,1,0,mock-trial,NULL,PennController,1,_Trial_,Start,1741630970064,NULL
1741631071,0303f65310d4e856d9fe219b56dcba54,PennController,1,0,mock-trial,NULL,Text,item_goal,Print,NA,1741630970065,NULL
1741631071,0303f65310d4e856d9fe219b56dcba54,PennController,1,0,mock-trial,NULL,Scale,judgement,Choice,1,1741630975668,NULL
1741631071,0303f65310d4e856d9fe219b56dcba54,PennController,1,0,mock-trial,NULL,PennController,1,_Trial_,End,1741630975670,NULL
# 13. group.
# 14. item.
# 15. filler.
# 16. adj.
# 17. Comments.
1741631071,0303f65310d4e856d9fe219b56dcba54,PennController,17,0,experimental-trial,NULL,PennController,17,_Trial_,Start,1741630975671,A,13,false,трудолюбивая,NULL
1741631071,0303f65310d4e856d9fe219b56dcba54,PennController,17,0,experimental-trial,NULL,Text,item_goal,Print,NA,1741630976175,A,13,false,трудолюбивая,NULL
1741631071,0303f65310d4e856d9fe219b56dcba54,PennController,17,0,experimental-trial,NULL,Scale,judgement,Choice,1,1741630985237,A,13,false,трудолюбивая,NULL
1741631071,0303f65310d4e856d9fe219b56dcba54,PennController,17,0,experimental-trial,NULL,PennController,17,_Trial_,End,1741630985239,A,13,false,трудолюбивая,NULL
1741631071,0303f65310d4e856d9fe219b56dcba54,PennController,11,0,experimental-trial,NULL,PennController,11,_Trial_,Start,1741630985240,A,7,true,-,NULL
1741631071,0303f65310d4e856d9fe219b56dcba54,PennController,11,0,experimental-trial,NULL,Text,item_goal,Print,NA,1741630985744,A,7,true,-,NULL
1741631071,0303f65310d4e856d9fe219b56dcba54,PennController,11,0,experimental-trial,NULL,Scale,judgement,Choice,1,1741630992108,A,7,true,-,NULL
1741631071,0303f65310d4e856d9fe219b56dcba54,PennController,11,0,experimental-trial,NULL,PennController,11,_Trial_,End,1741630992109,A,7,true,-,NULL
1741631071,0303f65310d4e856d9fe219b56dcba54,PennController,2,0,experimental-trial,NULL,PennController,2,_Trial_,Start,1741630992110,A,0,control,-,NULL
1741631071,0303f65310d4e856d9fe219b56dcba54,PennController,2,0,experimental-trial,NULL,Text,item_goal,Print,NA,1741630992612,A,0,control,-,NULL
1741631071,0303f65310d4e856d9fe219b56dcba54,PennController,2,0,experimental-trial,NULL,Scale,judgement,Choice,1,1741630997172,A,0,control,-,NULL
1741631071,0303f65310d4e856d9fe219b56dcba54,PennController,2,0,experimental-trial,NULL,PennController,2,_Trial_,End,1741630997173,A,0,control,-,NULL
1741631071,0303f65310d4e856d9fe219b56dcba54,PennController,4,0,experimental-trial,NULL,PennController,4,_Trial_,Start,1741630997174,A,000,control,-,NULL
1741631071,0303f65310d4e856d9fe219b56dcba54,PennController,4,0,experimental-trial,NULL,Text,item_goal,Print,NA,1741630997675,A,000,control,-,NULL
1741631071,0303f65310d4e856d9fe219b56dcba54,PennController,4,0,experimental-trial,NULL,Scale,judgement,Choice,5,1741631001420,A,000,control,-,NULL
1741631071,0303f65310d4e856d9fe219b56dcba54,PennController,4,0,experimental-trial,NULL,PennController,4,_Trial_,End,1741631001421,A,000,control,-,NULL
1741631071,0303f65310d4e856d9fe219b56dcba54,PennController,5,0,experimental-trial,NULL,PennController,5,_Trial_,Start,1741631001422,A,1,true,neg,NULL
1741631071,0303f65310d4e856d9fe219b56dcba54,PennController,5,0,experimental-trial,NULL,Text,item_goal,Print,NA,1741631001925,A,1,true,neg,NULL
1741631071,0303f65310d4e856d9fe219b56dcba54,PennController,5,0,experimental-trial,NULL,Scale,judgement,Choice,1,1741631008060,A,1,true,neg,NULL
1741631071,0303f65310d4e856d9fe219b56dcba54,PennController,5,0,experimental-trial,NULL,PennController,5,_Trial_,End,1741631008061,A,1,true,neg,NULL
1741631071,0303f65310d4e856d9fe219b56dcba54,PennController,7,0,experimental-trial,NULL,PennController,7,_Trial_,Start,1741631008062,A,3,true,-,NULL
1741631071,0303f65310d4e856d9fe219b56dcba54,PennController,7,0,experimental-trial,NULL,Text,item_goal,Print,NA,1741631008564,A,3,true,-,NULL
1741631071,0303f65310d4e856d9fe219b56dcba54,PennController,7,0,experimental-trial,NULL,Scale,judgement,Choice,3,1741631015740,A,3,true,-,NULL
1741631071,0303f65310d4e856d9fe219b56dcba54,PennController,7,0,experimental-trial,NULL,PennController,7,_Trial_,End,1741631015741,A,3,true,-,NULL
1741631071,0303f65310d4e856d9fe219b56dcba54,PennController,10,0,experimental-trial,NULL,PennController,10,_Trial_,Start,1741631015742,A,6,true,-,NULL
1741631071,0303f65310d4e856d9fe219b56dcba54,PennController,10,0,experimental-trial,NULL,Text,item_goal,Print,NA,1741631016245,A,6,true,-,NULL
1741631071,0303f65310d4e856d9fe219b56dcba54,PennController,10,0,experimental-trial,NULL,Scale,judgement,Choice,3,1741631023340,A,6,true,-,NULL
1741631071,0303f65310d4e856d9fe219b56dcba54,PennController,10,0,experimental-trial,NULL,PennController,10,_Trial_,End,1741631023341,A,6,true,-,NULL
1741631071,0303f65310d4e856d9fe219b56dcba54,PennController,15,0,experimental-trial,NULL,PennController,15,_Trial_,Start,1741631023342,A,11,false,светлая,NULL
1741631071,0303f65310d4e856d9fe219b56dcba54,PennController,15,0,experimental-trial,NULL,Text,item_goal,Print,NA,1741631023845,A,11,false,светлая,NULL
1741631071,0303f65310d4e856d9fe219b56dcba54,PennController,15,0,experimental-trial,NULL,Scale,judgement,Choice,3,1741631027100,A,11,false,светлая,NULL
1741631071,0303f65310d4e856d9fe219b56dcba54,PennController,15,0,experimental-trial,NULL,PennController,15,_Trial_,End,1741631027101,A,11,false,светлая,NULL
1741631071,0303f65310d4e856d9fe219b56dcba54,PennController,12,0,experimental-trial,NULL,PennController,12,_Trial_,Start,1741631027102,A,8,false,грязная,NULL
1741631071,0303f65310d4e856d9fe219b56dcba54,PennController,12,0,experimental-trial,NULL,Text,item_goal,Print,NA,1741631027606,A,8,false,грязная,NULL
1741631071,0303f65310d4e856d9fe219b56dcba54,PennController,12,0,experimental-trial,NULL,Scale,judgement,Choice,3,1741631030956,A,8,false,грязная,NULL
1741631071,0303f65310d4e856d9fe219b56dcba54,PennController,12,0,experimental-trial,NULL,PennController,12,_Trial_,End,1741631030957,A,8,false,грязная,NULL
1741631071,0303f65310d4e856d9fe219b56dcba54,PennController,3,0,experimental-trial,NULL,PennController,3,_Trial_,Start,1741631030958,A,00,control,-,NULL
1741631071,0303f65310d4e856d9fe219b56dcba54,PennController,3,0,experimental-trial,NULL,Text,item_goal,Print,NA,1741631031462,A,00,control,-,NULL
1741631071,0303f65310d4e856d9fe219b56dcba54,PennController,3,0,experimental-trial,NULL,Scale,judgement,Choice,5,1741631035668,A,00,control,-,NULL
1741631071,0303f65310d4e856d9fe219b56dcba54,PennController,3,0,experimental-trial,NULL,PennController,3,_Trial_,End,1741631035669,A,00,control,-,NULL
1741631071,0303f65310d4e856d9fe219b56dcba54,PennController,16,0,experimental-trial,NULL,PennController,16,_Trial_,Start,1741631035669,A,12,false,красивая,NULL
1741631071,0303f65310d4e856d9fe219b56dcba54,PennController,16,0,experimental-trial,NULL,Text,item_goal,Print,NA,1741631036171,A,12,false,красивая,NULL
1741631071,0303f65310d4e856d9fe219b56dcba54,PennController,16,0,experimental-trial,NULL,Scale,judgement,Choice,3,1741631043484,A,12,false,красивая,NULL
1741631071,0303f65310d4e856d9fe219b56dcba54,PennController,16,0,experimental-trial,NULL,PennController,16,_Trial_,End,1741631043485,A,12,false,красивая,NULL
1741631071,0303f65310d4e856d9fe219b56dcba54,PennController,8,0,experimental-trial,NULL,PennController,8,_Trial_,Start,1741631043486,A,4,true,cf,NULL
1741631071,0303f65310d4e856d9fe219b56dcba54,PennController,8,0,experimental-trial,NULL,Text,item_goal,Print,NA,1741631043989,A,4,true,cf,NULL
1741631071,0303f65310d4e856d9fe219b56dcba54,PennController,8,0,experimental-trial,NULL,Scale,judgement,Choice,1,1741631051940,A,4,true,cf,NULL
1741631071,0303f65310d4e856d9fe219b56dcba54,PennController,8,0,experimental-trial,NULL,PennController,8,_Trial_,End,1741631051941,A,4,true,cf,NULL
1741631071,0303f65310d4e856d9fe219b56dcba54,PennController,14,0,experimental-trial,NULL,PennController,14,_Trial_,Start,1741631051942,A,10,false,щедрая,NULL
1741631071,0303f65310d4e856d9fe219b56dcba54,PennController,14,0,experimental-trial,NULL,Text,item_goal,Print,NA,1741631052447,A,10,false,щедрая,NULL
1741631071,0303f65310d4e856d9fe219b56dcba54,PennController,14,0,experimental-trial,NULL,Scale,judgement,Choice,3,1741631056156,A,10,false,щедрая,NULL
1741631071,0303f65310d4e856d9fe219b56dcba54,PennController,14,0,experimental-trial,NULL,PennController,14,_Trial_,End,1741631056157,A,10,false,щедрая,NULL
1741631071,0303f65310d4e856d9fe219b56dcba54,PennController,9,0,experimental-trial,NULL,PennController,9,_Trial_,Start,1741631056158,A,5,true,ind,NULL
1741631071,0303f65310d4e856d9fe219b56dcba54,PennController,9,0,experimental-trial,NULL,Text,item_goal,Print,NA,1741631056661,A,5,true,ind,NULL
1741631071,0303f65310d4e856d9fe219b56dcba54,PennController,9,0,experimental-trial,NULL,Scale,judgement,Choice,1,1741631062676,A,5,true,ind,NULL
1741631071,0303f65310d4e856d9fe219b56dcba54,PennController,9,0,experimental-trial,NULL,PennController,9,_Trial_,End,1741631062677,A,5,true,ind,NULL
1741631071,0303f65310d4e856d9fe219b56dcba54,PennController,6,0,experimental-trial,NULL,PennController,6,_Trial_,Start,1741631062677,A,2,true,-,NULL
1741631071,0303f65310d4e856d9fe219b56dcba54,PennController,6,0,experimental-trial,NULL,Text,item_goal,Print,NA,1741631063179,A,2,true,-,NULL
1741631071,0303f65310d4e856d9fe219b56dcba54,PennController,6,0,experimental-trial,NULL,Scale,judgement,Choice,4,1741631067060,A,2,true,-,NULL
1741631071,0303f65310d4e856d9fe219b56dcba54,PennController,6,0,experimental-trial,NULL,PennController,6,_Trial_,End,1741631067061,A,2,true,-,NULL
1741631071,0303f65310d4e856d9fe219b56dcba54,PennController,13,0,experimental-trial,NULL,PennController,13,_Trial_,Start,1741631067062,A,9,false,холодная,NULL
1741631071,0303f65310d4e856d9fe219b56dcba54,PennController,13,0,experimental-trial,NULL,Text,item_goal,Print,NA,1741631067564,A,9,false,холодная,NULL
1741631071,0303f65310d4e856d9fe219b56dcba54,PennController,13,0,experimental-trial,NULL,Scale,judgement,Choice,3,1741631070348,A,9,false,холодная,NULL
1741631071,0303f65310d4e856d9fe219b56dcba54,PennController,13,0,experimental-trial,NULL,PennController,13,_Trial_,End,1741631070349,A,9,false,холодная,NULL
#
# Results on Mon, 10 Mar 2025 18:24:36 GMT
# USER AGENT: Mozilla/5.0 (Windows NT 10.0; Win64; x64) AppleWebKit/537.36 (KHTML, like Gecko) Chrome/128.0.0.0 YaBrowser/24.10.0.0 Safari/537.36
# Design number was non-random = 2
#
# Columns below this comment are as follows:
# 1. Results reception time.
# 2. MD5 hash of participant's IP address.
# 3. Controller name.
# 4. Order number of item.
# 5. Inner element number.
# 6. Label.
# 7. Latin Square Group.
# 8. PennElementType.
# 9. PennElementName.
# 10. Parameter.
# 11. Value.
# 12. EventTime.
# 13. Comments.
1741631076,c8d3070e0866309907973d433f6d8795,PennController,0,0,welcome,NULL,PennController,0,_Trial_,Start,1741630935834,NULL
1741631076,c8d3070e0866309907973d433f6d8795,PennController,0,0,welcome,NULL,PennController,0,_Trial_,End,1741630941600,NULL
1741631076,c8d3070e0866309907973d433f6d8795,PennController,1,0,mock-trial,NULL,PennController,1,_Trial_,Start,1741630941603,NULL
1741631076,c8d3070e0866309907973d433f6d8795,PennController,1,0,mock-trial,NULL,Text,item_goal,Print,NA,1741630941607,NULL
1741631076,c8d3070e0866309907973d433f6d8795,PennController,1,0,mock-trial,NULL,Scale,judgement,Choice,5,1741630954865,NULL
1741631076,c8d3070e0866309907973d433f6d8795,PennController,1,0,mock-trial,NULL,PennController,1,_Trial_,End,1741630954868,NULL
# 13. group.
# 14. item.
# 15. filler.
# 16. adj.
# 17. Comments.
1741631076,c8d3070e0866309907973d433f6d8795,PennController,12,0,experimental-trial,NULL,PennController,12,_Trial_,Start,1741630954870,C,14,false,быстрая,NULL
1741631076,c8d3070e0866309907973d433f6d8795,PennController,12,0,experimental-trial,NULL,Text,item_goal,Print,NA,1741630955373,C,14,false,быстрая,NULL
1741631076,c8d3070e0866309907973d433f6d8795,PennController,12,0,experimental-trial,NULL,Scale,judgement,Choice,2,1741630964177,C,14,false,быстрая,NULL
1741631076,c8d3070e0866309907973d433f6d8795,PennController,12,0,experimental-trial,NULL,PennController,12,_Trial_,End,1741630964179,C,14,false,быстрая,NULL
1741631076,c8d3070e0866309907973d433f6d8795,PennController,11,0,experimental-trial,NULL,PennController,11,_Trial_,Start,1741630964181,C,7,true,-,NULL
1741631076,c8d3070e0866309907973d433f6d8795,PennController,11,0,experimental-trial,NULL,Text,item_goal,Print,NA,1741630964685,C,7,true,-,NULL
1741631076,c8d3070e0866309907973d433f6d8795,PennController,11,0,experimental-trial,NULL,Scale,judgement,Choice,3,1741630969926,C,7,true,-,NULL
1741631076,c8d3070e0866309907973d433f6d8795,PennController,11,0,experimental-trial,NULL,PennController,11,_Trial_,End,1741630969929,C,7,true,-,NULL
1741631076,c8d3070e0866309907973d433f6d8795,PennController,16,0,experimental-trial,NULL,PennController,16,_Trial_,Start,1741630969932,C,18,false,лёгкая,NULL
1741631076,c8d3070e0866309907973d433f6d8795,PennController,16,0,experimental-trial,NULL,Text,item_goal,Print,NA,1741630970437,C,18,false,лёгкая,NULL
1741631076,c8d3070e0866309907973d433f6d8795,PennController,16,0,experimental-trial,NULL,Scale,judgement,Choice,4,1741630976630,C,18,false,лёгкая,NULL
1741631076,c8d3070e0866309907973d433f6d8795,PennController,16,0,experimental-trial,NULL,PennController,16,_Trial_,End,1741630976634,C,18,false,лёгкая,NULL
1741631076,c8d3070e0866309907973d433f6d8795,PennController,10,0,experimental-trial,NULL,PennController,10,_Trial_,Start,1741630976635,C,6,true,-,NULL
1741631076,c8d3070e0866309907973d433f6d8795,PennController,10,0,experimental-trial,NULL,Text,item_goal,Print,NA,1741630977139,C,6,true,-,NULL
1741631076,c8d3070e0866309907973d433f6d8795,PennController,10,0,experimental-trial,NULL,Scale,judgement,Choice,3,1741630985683,C,6,true,-,NULL
1741631076,c8d3070e0866309907973d433f6d8795,PennController,10,0,experimental-trial,NULL,PennController,10,_Trial_,End,1741630985686,C,6,true,-,NULL
1741631076,c8d3070e0866309907973d433f6d8795,PennController,14,0,experimental-trial,NULL,PennController,14,_Trial_,Start,1741630985687,C,16,false,умная,NULL
1741631076,c8d3070e0866309907973d433f6d8795,PennController,14,0,experimental-trial,NULL,Text,item_goal,Print,NA,1741630986190,C,16,false,умная,NULL
1741631076,c8d3070e0866309907973d433f6d8795,PennController,14,0,experimental-trial,NULL,Scale,judgement,Choice,4,1741630990265,C,16,false,умная,NULL
1741631076,c8d3070e0866309907973d433f6d8795,PennController,14,0,experimental-trial,NULL,PennController,14,_Trial_,End,1741630990268,C,16,false,умная,NULL
1741631076,c8d3070e0866309907973d433f6d8795,PennController,9,0,experimental-trial,NULL,PennController,9,_Trial_,Start,1741630990269,C,5,true,ind,NULL
1741631076,c8d3070e0866309907973d433f6d8795,PennController,9,0,experimental-trial,NULL,Text,item_goal,Print,NA,1741630990771,C,5,true,ind,NULL
1741631076,c8d3070e0866309907973d433f6d8795,PennController,9,0,experimental-trial,NULL,Scale,judgement,Choice,1,1741630998845,C,5,true,ind,NULL
1741631076,c8d3070e0866309907973d433f6d8795,PennController,9,0,experimental-trial,NULL,PennController,9,_Trial_,End,1741630998847,C,5,true,ind,NULL
1741631076,c8d3070e0866309907973d433f6d8795,PennController,5,0,experimental-trial,NULL,PennController,5,_Trial_,Start,1741630998849,C,1,true,pos,NULL
1741631076,c8d3070e0866309907973d433f6d8795,PennController,5,0,experimental-trial,NULL,Text,item_goal,Print,NA,1741630999352,C,1,true,pos,NULL
1741631076,c8d3070e0866309907973d433f6d8795,PennController,5,0,experimental-trial,NULL,Scale,judgement,Choice,5,1741631002657,C,1,true,pos,NULL
1741631076,c8d3070e0866309907973d433f6d8795,PennController,5,0,experimental-trial,NULL,PennController,5,_Trial_,End,1741631002659,C,1,true,pos,NULL
1741631076,c8d3070e0866309907973d433f6d8795,PennController,13,0,experimental-trial,NULL,PennController,13,_Trial_,Start,1741631002661,C,15,false,добрая,NULL
1741631076,c8d3070e0866309907973d433f6d8795,PennController,13,0,experimental-trial,NULL,Text,item_goal,Print,NA,1741631003165,C,15,false,добрая,NULL
1741631076,c8d3070e0866309907973d433f6d8795,PennController,13,0,experimental-trial,NULL,Scale,judgement,Choice,4,1741631008323,C,15,false,добрая,NULL
1741631076,c8d3070e0866309907973d433f6d8795,PennController,13,0,experimental-trial,NULL,PennController,13,_Trial_,End,1741631008325,C,15,false,добрая,NULL
1741631076,c8d3070e0866309907973d433f6d8795,PennController,3,0,experimental-trial,NULL,PennController,3,_Trial_,Start,1741631008326,C,00,control,-,NULL
1741631076,c8d3070e0866309907973d433f6d8795,PennController,3,0,experimental-trial,NULL,Text,item_goal,Print,NA,1741631008832,C,00,control,-,NULL
1741631076,c8d3070e0866309907973d433f6d8795,PennController,3,0,experimental-trial,NULL,Scale,judgement,Choice,5,1741631013740,C,00,control,-,NULL
1741631076,c8d3070e0866309907973d433f6d8795,PennController,3,0,experimental-trial,NULL,PennController,3,_Trial_,End,1741631013743,C,00,control,-,NULL
1741631076,c8d3070e0866309907973d433f6d8795,PennController,17,0,experimental-trial,NULL,PennController,17,_Trial_,Start,1741631013744,C,19,false,низкая,NULL
1741631076,c8d3070e0866309907973d433f6d8795,PennController,17,0,experimental-trial,NULL,Text,item_goal,Print,NA,1741631014247,C,19,false,низкая,NULL
1741631076,c8d3070e0866309907973d433f6d8795,PennController,17,0,experimental-trial,NULL,Scale,judgement,Choice,3,1741631018674,C,19,false,низкая,NULL
1741631076,c8d3070e0866309907973d433f6d8795,PennController,17,0,experimental-trial,NULL,PennController,17,_Trial_,End,1741631018677,C,19,false,низкая,NULL
1741631076,c8d3070e0866309907973d433f6d8795,PennController,6,0,experimental-trial,NULL,PennController,6,_Trial_,Start,1741631018678,C,2,true,-,NULL
1741631076,c8d3070e0866309907973d433f6d8795,PennController,6,0,experimental-trial,NULL,Text,item_goal,Print,NA,1741631019180,C,2,true,-,NULL
1741631076,c8d3070e0866309907973d433f6d8795,PennController,6,0,experimental-trial,NULL,Scale,judgement,Choice,1,1741631025740,C,2,true,-,NULL
1741631076,c8d3070e0866309907973d433f6d8795,PennController,6,0,experimental-trial,NULL,PennController,6,_Trial_,End,1741631025743,C,2,true,-,NULL
1741631076,c8d3070e0866309907973d433f6d8795,PennController,2,0,experimental-trial,NULL,PennController,2,_Trial_,Start,1741631025744,C,0,control,-,NULL
1741631076,c8d3070e0866309907973d433f6d8795,PennController,2,0,experimental-trial,NULL,Text,item_goal,Print,NA,1741631026250,C,0,control,-,NULL
1741631076,c8d3070e0866309907973d433f6d8795,PennController,2,0,experimental-trial,NULL,Scale,judgement,Choice,1,1741631034154,C,0,control,-,NULL
1741631076,c8d3070e0866309907973d433f6d8795,PennController,2,0,experimental-trial,NULL,PennController,2,_Trial_,End,1741631034156,C,0,control,-,NULL
1741631076,c8d3070e0866309907973d433f6d8795,PennController,4,0,experimental-trial,NULL,PennController,4,_Trial_,Start,1741631034158,C,000,control,-,NULL
1741631076,c8d3070e0866309907973d433f6d8795,PennController,4,0,experimental-trial,NULL,Text,item_goal,Print,NA,1741631034662,C,000,control,-,NULL
1741631076,c8d3070e0866309907973d433f6d8795,PennController,4,0,experimental-trial,NULL,Scale,judgement,Choice,5,1741631039394,C,000,control,-,NULL
1741631076,c8d3070e0866309907973d433f6d8795,PennController,4,0,experimental-trial,NULL,PennController,4,_Trial_,End,1741631039396,C,000,control,-,NULL
1741631076,c8d3070e0866309907973d433f6d8795,PennController,15,0,experimental-trial,NULL,PennController,15,_Trial_,Start,1741631039397,C,17,false,трусливая,NULL
1741631076,c8d3070e0866309907973d433f6d8795,PennController,15,0,experimental-trial,NULL,Text,item_goal,Print,NA,1741631039904,C,17,false,трусливая,NULL
1741631076,c8d3070e0866309907973d433f6d8795,PennController,15,0,experimental-trial,NULL,Scale,judgement,Choice,3,1741631042552,C,17,false,трусливая,NULL
1741631076,c8d3070e0866309907973d433f6d8795,PennController,15,0,experimental-trial,NULL,PennController,15,_Trial_,End,1741631042554,C,17,false,трусливая,NULL
1741631076,c8d3070e0866309907973d433f6d8795,PennController,7,0,experimental-trial,NULL,PennController,7,_Trial_,Start,1741631042555,C,3,true,-,NULL
1741631076,c8d3070e0866309907973d433f6d8795,PennController,7,0,experimental-trial,NULL,Text,item_goal,Print,NA,1741631043061,C,3,true,-,NULL
1741631076,c8d3070e0866309907973d433f6d8795,PennController,7,0,experimental-trial,NULL,Scale,judgement,Choice,5,1741631050290,C,3,true,-,NULL
1741631076,c8d3070e0866309907973d433f6d8795,PennController,7,0,experimental-trial,NULL,PennController,7,_Trial_,End,1741631050292,C,3,true,-,NULL
1741631076,c8d3070e0866309907973d433f6d8795,PennController,8,0,experimental-trial,NULL,PennController,8,_Trial_,Start,1741631050293,C,4,true,cf,NULL
1741631076,c8d3070e0866309907973d433f6d8795,PennController,8,0,experimental-trial,NULL,Text,item_goal,Print,NA,1741631050799,C,4,true,cf,NULL
1741631076,c8d3070e0866309907973d433f6d8795,PennController,8,0,experimental-trial,NULL,Scale,judgement,Choice,5,1741631055002,C,4,true,cf,NULL
1741631076,c8d3070e0866309907973d433f6d8795,PennController,8,0,experimental-trial,NULL,PennController,8,_Trial_,End,1741631055004,C,4,true,cf,NULL
#
# Results on Mon, 10 Mar 2025 18:24:47 GMT
# USER AGENT: Mozilla/5.0 (Windows NT 10.0; Win64; x64) AppleWebKit/537.36 (KHTML, like Gecko) Chrome/134.0.0.0 Safari/537.36
# Design number was non-random = 1
#
# Columns below this comment are as follows:
# 1. Results reception time.
# 2. MD5 hash of participant's IP address.
# 3. Controller name.
# 4. Order number of item.
# 5. Inner element number.
# 6. Label.
# 7. Latin Square Group.
# 8. PennElementType.
# 9. PennElementName.
# 10. Parameter.
# 11. Value.
# 12. EventTime.
# 13. Comments.
1741631087,dfcd3789e4942d248888812157a05548,PennController,0,0,welcome,NULL,PennController,0,_Trial_,Start,1741630948960,NULL
1741631087,dfcd3789e4942d248888812157a05548,PennController,0,0,welcome,NULL,PennController,0,_Trial_,End,1741630966056,NULL
1741631087,dfcd3789e4942d248888812157a05548,PennController,1,0,mock-trial,NULL,PennController,1,_Trial_,Start,1741630966059,NULL
1741631087,dfcd3789e4942d248888812157a05548,PennController,1,0,mock-trial,NULL,Text,item_goal,Print,NA,1741630966062,NULL
1741631087,dfcd3789e4942d248888812157a05548,PennController,1,0,mock-trial,NULL,Scale,judgement,Choice,5,1741630974924,NULL
1741631087,dfcd3789e4942d248888812157a05548,PennController,1,0,mock-trial,NULL,PennController,1,_Trial_,End,1741630974928,NULL
# 13. group.
# 14. item.
# 15. filler.
# 16. adj.
# 17. Comments.
1741631087,dfcd3789e4942d248888812157a05548,PennController,8,0,experimental-trial,NULL,PennController,8,_Trial_,Start,1741630974930,B,4,true,cf,NULL
1741631087,dfcd3789e4942d248888812157a05548,PennController,8,0,experimental-trial,NULL,Text,item_goal,Print,NA,1741630975438,B,4,true,cf,NULL
1741631087,dfcd3789e4942d248888812157a05548,PennController,8,0,experimental-trial,NULL,Scale,judgement,Choice,3,1741630982392,B,4,true,cf,NULL
1741631087,dfcd3789e4942d248888812157a05548,PennController,8,0,experimental-trial,NULL,PennController,8,_Trial_,End,1741630982395,B,4,true,cf,NULL
1741631087,dfcd3789e4942d248888812157a05548,PennController,10,0,experimental-trial,NULL,PennController,10,_Trial_,Start,1741630982399,B,6,true,-,NULL
1741631087,dfcd3789e4942d248888812157a05548,PennController,10,0,experimental-trial,NULL,Text,item_goal,Print,NA,1741630982906,B,6,true,-,NULL
1741631087,dfcd3789e4942d248888812157a05548,PennController,10,0,experimental-trial,NULL,Scale,judgement,Choice,5,1741630989166,B,6,true,-,NULL
1741631087,dfcd3789e4942d248888812157a05548,PennController,10,0,experimental-trial,NULL,PennController,10,_Trial_,End,1741630989171,B,6,true,-,NULL
1741631087,dfcd3789e4942d248888812157a05548,PennController,15,0,experimental-trial,NULL,PennController,15,_Trial_,Start,1741630989173,B,11,false,тёмная,NULL
1741631087,dfcd3789e4942d248888812157a05548,PennController,15,0,experimental-trial,NULL,Text,item_goal,Print,NA,1741630989678,B,11,false,тёмная,NULL
1741631087,dfcd3789e4942d248888812157a05548,PennController,15,0,experimental-trial,NULL,Scale,judgement,Choice,2,1741630996129,B,11,false,тёмная,NULL
1741631087,dfcd3789e4942d248888812157a05548,PennController,15,0,experimental-trial,NULL,PennController,15,_Trial_,End,1741630996131,B,11,false,тёмная,NULL
1741631087,dfcd3789e4942d248888812157a05548,PennController,3,0,experimental-trial,NULL,PennController,3,_Trial_,Start,1741630996134,B,00,control,-,NULL
1741631087,dfcd3789e4942d248888812157a05548,PennController,3,0,experimental-trial,NULL,Text,item_goal,Print,NA,1741630996644,B,00,control,-,NULL
1741631087,dfcd3789e4942d248888812157a05548,PennController,3,0,experimental-trial,NULL,Scale,judgement,Choice,5,1741631002119,B,00,control,-,NULL
1741631087,dfcd3789e4942d248888812157a05548,PennController,3,0,experimental-trial,NULL,PennController,3,_Trial_,End,1741631002122,B,00,control,-,NULL
1741631087,dfcd3789e4942d248888812157a05548,PennController,17,0,experimental-trial,NULL,PennController,17,_Trial_,Start,1741631002124,B,13,false,ленивая,NULL
1741631087,dfcd3789e4942d248888812157a05548,PennController,17,0,experimental-trial,NULL,Text,item_goal,Print,NA,1741631002628,B,13,false,ленивая,NULL
1741631087,dfcd3789e4942d248888812157a05548,PennController,17,0,experimental-trial,NULL,Scale,judgement,Choice,5,1741631013058,B,13,false,ленивая,NULL
1741631087,dfcd3789e4942d248888812157a05548,PennController,17,0,experimental-trial,NULL,PennController,17,_Trial_,End,1741631013061,B,13,false,ленивая,NULL
1741631087,dfcd3789e4942d248888812157a05548,PennController,6,0,experimental-trial,NULL,PennController,6,_Trial_,Start,1741631013063,B,2,true,-,NULL
1741631087,dfcd3789e4942d248888812157a05548,PennController,6,0,experimental-trial,NULL,Text,item_goal,Print,NA,1741631013568,B,2,true,-,NULL
1741631087,dfcd3789e4942d248888812157a05548,PennController,6,0,experimental-trial,NULL,Scale,judgement,Choice,4,1741631019318,B,2,true,-,NULL
1741631087,dfcd3789e4942d248888812157a05548,PennController,6,0,experimental-trial,NULL,PennController,6,_Trial_,End,1741631019322,B,2,true,-,NULL
1741631087,dfcd3789e4942d248888812157a05548,PennController,7,0,experimental-trial,NULL,PennController,7,_Trial_,Start,1741631019323,B,3,true,-,NULL
1741631087,dfcd3789e4942d248888812157a05548,PennController,7,0,experimental-trial,NULL,Text,item_goal,Print,NA,1741631019829,B,3,true,-,NULL
1741631087,dfcd3789e4942d248888812157a05548,PennController,7,0,experimental-trial,NULL,Scale,judgement,Choice,1,1741631023649,B,3,true,-,NULL
1741631087,dfcd3789e4942d248888812157a05548,PennController,7,0,experimental-trial,NULL,PennController,7,_Trial_,End,1741631023651,B,3,true,-,NULL
1741631087,dfcd3789e4942d248888812157a05548,PennController,13,0,experimental-trial,NULL,PennController,13,_Trial_,Start,1741631023655,B,9,false,горячая,NULL
1741631087,dfcd3789e4942d248888812157a05548,PennController,13,0,experimental-trial,NULL,Text,item_goal,Print,NA,1741631024160,B,9,false,горячая,NULL
1741631087,dfcd3789e4942d248888812157a05548,PennController,13,0,experimental-trial,NULL,Scale,judgement,Choice,3,1741631030408,B,9,false,горячая,NULL
1741631087,dfcd3789e4942d248888812157a05548,PennController,13,0,experimental-trial,NULL,PennController,13,_Trial_,End,1741631030411,B,9,false,горячая,NULL
1741631087,dfcd3789e4942d248888812157a05548,PennController,16,0,experimental-trial,NULL,PennController,16,_Trial_,Start,1741631030413,B,12,false,уродливая,NULL
1741631087,dfcd3789e4942d248888812157a05548,PennController,16,0,experimental-trial,NULL,Text,item_goal,Print,NA,1741631030918,B,12,false,уродливая,NULL
1741631087,dfcd3789e4942d248888812157a05548,PennController,16,0,experimental-trial,NULL,Scale,judgement,Choice,5,1741631041707,B,12,false,уродливая,NULL
1741631087,dfcd3789e4942d248888812157a05548,PennController,16,0,experimental-trial,NULL,PennController,16,_Trial_,End,1741631041709,B,12,false,уродливая,NULL
1741631087,dfcd3789e4942d248888812157a05548,PennController,5,0,experimental-trial,NULL,PennController,5,_Trial_,Start,1741631041711,B,1,true,neg,NULL
1741631087,dfcd3789e4942d248888812157a05548,PennController,5,0,experimental-trial,NULL,Text,item_goal,Print,NA,1741631042215,B,1,true,neg,NULL
1741631087,dfcd3789e4942d248888812157a05548,PennController,5,0,experimental-trial,NULL,Scale,judgement,Choice,1,1741631049778,B,1,true,neg,NULL
1741631087,dfcd3789e4942d248888812157a05548,PennController,5,0,experimental-trial,NULL,PennController,5,_Trial_,End,1741631049780,B,1,true,neg,NULL
1741631087,dfcd3789e4942d248888812157a05548,PennController,11,0,experimental-trial,NULL,PennController,11,_Trial_,Start,1741631049781,B,7,true,-,NULL
1741631087,dfcd3789e4942d248888812157a05548,PennController,11,0,experimental-trial,NULL,Text,item_goal,Print,NA,1741631050286,B,7,true,-,NULL
1741631087,dfcd3789e4942d248888812157a05548,PennController,11,0,experimental-trial,NULL,Scale,judgement,Choice,2,1741631055141,B,7,true,-,NULL
1741631087,dfcd3789e4942d248888812157a05548,PennController,11,0,experimental-trial,NULL,PennController,11,_Trial_,End,1741631055144,B,7,true,-,NULL
1741631087,dfcd3789e4942d248888812157a05548,PennController,12,0,experimental-trial,NULL,PennController,12,_Trial_,Start,1741631055146,B,8,false,чистая,NULL
1741631087,dfcd3789e4942d248888812157a05548,PennController,12,0,experimental-trial,NULL,Text,item_goal,Print,NA,1741631055653,B,8,false,чистая,NULL
1741631087,dfcd3789e4942d248888812157a05548,PennController,12,0,experimental-trial,NULL,Scale,judgement,Choice,1,1741631060196,B,8,false,чистая,NULL
1741631087,dfcd3789e4942d248888812157a05548,PennController,12,0,experimental-trial,NULL,PennController,12,_Trial_,End,1741631060199,B,8,false,чистая,NULL
1741631087,dfcd3789e4942d248888812157a05548,PennController,4,0,experimental-trial,NULL,PennController,4,_Trial_,Start,1741631060200,B,000,control,-,NULL
1741631087,dfcd3789e4942d248888812157a05548,PennController,4,0,experimental-trial,NULL,Text,item_goal,Print,NA,1741631060708,B,000,control,-,NULL
1741631087,dfcd3789e4942d248888812157a05548,PennController,4,0,experimental-trial,NULL,Scale,judgement,Choice,5,1741631064227,B,000,control,-,NULL
1741631087,dfcd3789e4942d248888812157a05548,PennController,4,0,experimental-trial,NULL,PennController,4,_Trial_,End,1741631064230,B,000,control,-,NULL
1741631087,dfcd3789e4942d248888812157a05548,PennController,14,0,experimental-trial,NULL,PennController,14,_Trial_,Start,1741631064231,B,10,false,скупая,NULL
1741631087,dfcd3789e4942d248888812157a05548,PennController,14,0,experimental-trial,NULL,Text,item_goal,Print,NA,1741631064736,B,10,false,скупая,NULL
1741631087,dfcd3789e4942d248888812157a05548,PennController,14,0,experimental-trial,NULL,Scale,judgement,Choice,2,1741631071523,B,10,false,скупая,NULL
1741631087,dfcd3789e4942d248888812157a05548,PennController,14,0,experimental-trial,NULL,PennController,14,_Trial_,End,1741631071526,B,10,false,скупая,NULL
1741631087,dfcd3789e4942d248888812157a05548,PennController,9,0,experimental-trial,NULL,PennController,9,_Trial_,Start,1741631071527,B,5,true,ind,NULL
1741631087,dfcd3789e4942d248888812157a05548,PennController,9,0,experimental-trial,NULL,Text,item_goal,Print,NA,1741631072033,B,5,true,ind,NULL
1741631087,dfcd3789e4942d248888812157a05548,PennController,9,0,experimental-trial,NULL,Scale,judgement,Choice,1,1741631079058,B,5,true,ind,NULL
1741631087,dfcd3789e4942d248888812157a05548,PennController,9,0,experimental-trial,NULL,PennController,9,_Trial_,End,1741631079060,B,5,true,ind,NULL
1741631087,dfcd3789e4942d248888812157a05548,PennController,2,0,experimental-trial,NULL,PennController,2,_Trial_,Start,1741631079062,B,0,control,-,NULL
1741631087,dfcd3789e4942d248888812157a05548,PennController,2,0,experimental-trial,NULL,Text,item_goal,Print,NA,1741631079569,B,0,control,-,NULL
1741631087,dfcd3789e4942d248888812157a05548,PennController,2,0,experimental-trial,NULL,Scale,judgement,Choice,1,1741631086697,B,0,control,-,NULL
1741631087,dfcd3789e4942d248888812157a05548,PennController,2,0,experimental-trial,NULL,PennController,2,_Trial_,End,1741631086699,B,0,control,-,NULL
#
# Results on Mon, 10 Mar 2025 18:24:50 GMT
# USER AGENT: Mozilla/5.0 (Linux; Android 10; K) AppleWebKit/537.36 (KHTML, like Gecko) Chrome/126.0.0.0 Mobile Safari/537.36
# Design number was non-random = 3
#
# Columns below this comment are as follows:
# 1. Results reception time.
# 2. MD5 hash of participant's IP address.
# 3. Controller name.
# 4. Order number of item.
# 5. Inner element number.
# 6. Label.
# 7. Latin Square Group.
# 8. PennElementType.
# 9. PennElementName.
# 10. Parameter.
# 11. Value.
# 12. EventTime.
# 13. Comments.
1741631090,4afd246ba00a5b23d4ebde01ce573d58,PennController,0,0,welcome,NULL,PennController,0,_Trial_,Start,1741630955526,NULL
1741631090,4afd246ba00a5b23d4ebde01ce573d58,PennController,0,0,welcome,NULL,PennController,0,_Trial_,End,1741630965908,NULL
1741631090,4afd246ba00a5b23d4ebde01ce573d58,PennController,1,0,mock-trial,NULL,PennController,1,_Trial_,Start,1741630965923,NULL
1741631090,4afd246ba00a5b23d4ebde01ce573d58,PennController,1,0,mock-trial,NULL,Text,item_goal,Print,NA,1741630965934,NULL
1741631090,4afd246ba00a5b23d4ebde01ce573d58,PennController,1,0,mock-trial,NULL,Scale,judgement,Choice,5,1741630980144,NULL
1741631090,4afd246ba00a5b23d4ebde01ce573d58,PennController,1,0,mock-trial,NULL,PennController,1,_Trial_,End,1741630980166,NULL
# 13. group.
# 14. item.
# 15. filler.
# 16. adj.
# 17. Comments.
1741631090,4afd246ba00a5b23d4ebde01ce573d58,PennController,4,0,experimental-trial,NULL,PennController,4,_Trial_,Start,1741630980177,D,000,control,-,NULL
1741631090,4afd246ba00a5b23d4ebde01ce573d58,PennController,4,0,experimental-trial,NULL,Text,item_goal,Print,NA,1741630980698,D,000,control,-,NULL
1741631090,4afd246ba00a5b23d4ebde01ce573d58,PennController,4,0,experimental-trial,NULL,Scale,judgement,Choice,5,1741630986578,D,000,control,-,NULL
1741631090,4afd246ba00a5b23d4ebde01ce573d58,PennController,4,0,experimental-trial,NULL,PennController,4,_Trial_,End,1741630986601,D,000,control,-,NULL
1741631090,4afd246ba00a5b23d4ebde01ce573d58,PennController,10,0,experimental-trial,NULL,PennController,10,_Trial_,Start,1741630986608,D,6,true,-,NULL
1741631090,4afd246ba00a5b23d4ebde01ce573d58,PennController,10,0,experimental-trial,NULL,Text,item_goal,Print,NA,1741630987124,D,6,true,-,NULL
1741631090,4afd246ba00a5b23d4ebde01ce573d58,PennController,10,0,experimental-trial,NULL,Scale,judgement,Choice,1,1741631002266,D,6,true,-,NULL
1741631090,4afd246ba00a5b23d4ebde01ce573d58,PennController,10,0,experimental-trial,NULL,PennController,10,_Trial_,End,1741631002284,D,6,true,-,NULL
1741631090,4afd246ba00a5b23d4ebde01ce573d58,PennController,6,0,experimental-trial,NULL,PennController,6,_Trial_,Start,1741631002290,D,2,true,-,NULL
1741631090,4afd246ba00a5b23d4ebde01ce573d58,PennController,6,0,experimental-trial,NULL,Text,item_goal,Print,NA,1741631002803,D,2,true,-,NULL
1741631090,4afd246ba00a5b23d4ebde01ce573d58,PennController,6,0,experimental-trial,NULL,Scale,judgement,Choice,4,1741631008101,D,2,true,-,NULL
1741631090,4afd246ba00a5b23d4ebde01ce573d58,PennController,6,0,experimental-trial,NULL,PennController,6,_Trial_,End,1741631008122,D,2,true,-,NULL
1741631090,4afd246ba00a5b23d4ebde01ce573d58,PennController,3,0,experimental-trial,NULL,PennController,3,_Trial_,Start,1741631008129,D,00,control,-,NULL
1741631090,4afd246ba00a5b23d4ebde01ce573d58,PennController,3,0,experimental-trial,NULL,Text,item_goal,Print,NA,1741631008648,D,00,control,-,NULL
1741631090,4afd246ba00a5b23d4ebde01ce573d58,PennController,3,0,experimental-trial,NULL,Scale,judgement,Choice,4,1741631013798,D,00,control,-,NULL
1741631090,4afd246ba00a5b23d4ebde01ce573d58,PennController,3,0,experimental-trial,NULL,PennController,3,_Trial_,End,1741631013818,D,00,control,-,NULL
1741631090,4afd246ba00a5b23d4ebde01ce573d58,PennController,17,0,experimental-trial,NULL,PennController,17,_Trial_,Start,1741631013825,D,19,false,высокая,NULL
1741631090,4afd246ba00a5b23d4ebde01ce573d58,PennController,17,0,experimental-trial,NULL,Text,item_goal,Print,NA,1741631014341,D,19,false,высокая,NULL
1741631090,4afd246ba00a5b23d4ebde01ce573d58,PennController,17,0,experimental-trial,NULL,Scale,judgement,Choice,1,1741631019398,D,19,false,высокая,NULL
1741631090,4afd246ba00a5b23d4ebde01ce573d58,PennController,17,0,experimental-trial,NULL,PennController,17,_Trial_,End,1741631019417,D,19,false,высокая,NULL
1741631090,4afd246ba00a5b23d4ebde01ce573d58,PennController,12,0,experimental-trial,NULL,PennController,12,_Trial_,Start,1741631019425,D,14,false,медленная,NULL
1741631090,4afd246ba00a5b23d4ebde01ce573d58,PennController,12,0,experimental-trial,NULL,Text,item_goal,Print,NA,1741631019942,D,14,false,медленная,NULL
1741631090,4afd246ba00a5b23d4ebde01ce573d58,PennController,12,0,experimental-trial,NULL,Scale,judgement,Choice,1,1741631033270,D,14,false,медленная,NULL
1741631090,4afd246ba00a5b23d4ebde01ce573d58,PennController,12,0,experimental-trial,NULL,PennController,12,_Trial_,End,1741631033287,D,14,false,медленная,NULL
1741631090,4afd246ba00a5b23d4ebde01ce573d58,PennController,7,0,experimental-trial,NULL,PennController,7,_Trial_,Start,1741631033298,D,3,true,-,NULL
1741631090,4afd246ba00a5b23d4ebde01ce573d58,PennController,7,0,experimental-trial,NULL,Text,item_goal,Print,NA,1741631033814,D,3,true,-,NULL
1741631090,4afd246ba00a5b23d4ebde01ce573d58,PennController,7,0,experimental-trial,NULL,Scale,judgement,Choice,1,1741631039302,D,3,true,-,NULL
1741631090,4afd246ba00a5b23d4ebde01ce573d58,PennController,7,0,experimental-trial,NULL,PennController,7,_Trial_,End,1741631039314,D,3,true,-,NULL
1741631090,4afd246ba00a5b23d4ebde01ce573d58,PennController,2,0,experimental-trial,NULL,PennController,2,_Trial_,Start,1741631039320,D,0,control,-,NULL
1741631090,4afd246ba00a5b23d4ebde01ce573d58,PennController,2,0,experimental-trial,NULL,Text,item_goal,Print,NA,1741631039827,D,0,control,-,NULL
1741631090,4afd246ba00a5b23d4ebde01ce573d58,PennController,2,0,experimental-trial,NULL,Scale,judgement,Choice,1,1741631044630,D,0,control,-,NULL
1741631090,4afd246ba00a5b23d4ebde01ce573d58,PennController,2,0,experimental-trial,NULL,PennController,2,_Trial_,End,1741631044642,D,0,control,-,NULL
1741631090,4afd246ba00a5b23d4ebde01ce573d58,PennController,13,0,experimental-trial,NULL,PennController,13,_Trial_,Start,1741631044646,D,15,false,злая,NULL
1741631090,4afd246ba00a5b23d4ebde01ce573d58,PennController,13,0,experimental-trial,NULL,Text,item_goal,Print,NA,1741631045164,D,15,false,злая,NULL
1741631090,4afd246ba00a5b23d4ebde01ce573d58,PennController,13,0,experimental-trial,NULL,Scale,judgement,Choice,1,1741631048610,D,15,false,злая,NULL
1741631090,4afd246ba00a5b23d4ebde01ce573d58,PennController,13,0,experimental-trial,NULL,PennController,13,_Trial_,End,1741631048626,D,15,false,злая,NULL
1741631090,4afd246ba00a5b23d4ebde01ce573d58,PennController,11,0,experimental-trial,NULL,PennController,11,_Trial_,Start,1741631048633,D,7,true,-,NULL
1741631090,4afd246ba00a5b23d4ebde01ce573d58,PennController,11,0,experimental-trial,NULL,Text,item_goal,Print,NA,1741631049146,D,7,true,-,NULL
1741631090,4afd246ba00a5b23d4ebde01ce573d58,PennController,11,0,experimental-trial,NULL,Scale,judgement,Choice,2,1741631055436,D,7,true,-,NULL
1741631090,4afd246ba00a5b23d4ebde01ce573d58,PennController,11,0,experimental-trial,NULL,PennController,11,_Trial_,End,1741631055447,D,7,true,-,NULL
1741631090,4afd246ba00a5b23d4ebde01ce573d58,PennController,9,0,experimental-trial,NULL,PennController,9,_Trial_,Start,1741631055453,D,5,true,ind,NULL
1741631090,4afd246ba00a5b23d4ebde01ce573d58,PennController,9,0,experimental-trial,NULL,Text,item_goal,Print,NA,1741631055967,D,5,true,ind,NULL
1741631090,4afd246ba00a5b23d4ebde01ce573d58,PennController,9,0,experimental-trial,NULL,Scale,judgement,Choice,1,1741631064321,D,5,true,ind,NULL
1741631090,4afd246ba00a5b23d4ebde01ce573d58,PennController,9,0,experimental-trial,NULL,PennController,9,_Trial_,End,1741631064338,D,5,true,ind,NULL
1741631090,4afd246ba00a5b23d4ebde01ce573d58,PennController,16,0,experimental-trial,NULL,PennController,16,_Trial_,Start,1741631064345,D,18,false,тяжёлая,NULL
1741631090,4afd246ba00a5b23d4ebde01ce573d58,PennController,16,0,experimental-trial,NULL,Text,item_goal,Print,NA,1741631064860,D,18,false,тяжёлая,NULL
1741631090,4afd246ba00a5b23d4ebde01ce573d58,PennController,16,0,experimental-trial,NULL,Scale,judgement,Choice,1,1741631070022,D,18,false,тяжёлая,NULL
1741631090,4afd246ba00a5b23d4ebde01ce573d58,PennController,16,0,experimental-trial,NULL,PennController,16,_Trial_,End,1741631070031,D,18,false,тяжёлая,NULL
1741631090,4afd246ba00a5b23d4ebde01ce573d58,PennController,8,0,experimental-trial,NULL,PennController,8,_Trial_,Start,1741631070036,D,4,true,cf,NULL
1741631090,4afd246ba00a5b23d4ebde01ce573d58,PennController,8,0,experimental-trial,NULL,Text,item_goal,Print,NA,1741631070562,D,4,true,cf,NULL
1741631090,4afd246ba00a5b23d4ebde01ce573d58,PennController,8,0,experimental-trial,NULL,Scale,judgement,Choice,3,1741631077894,D,4,true,cf,NULL
1741631090,4afd246ba00a5b23d4ebde01ce573d58,PennController,8,0,experimental-trial,NULL,PennController,8,_Trial_,End,1741631077912,D,4,true,cf,NULL
1741631090,4afd246ba00a5b23d4ebde01ce573d58,PennController,15,0,experimental-trial,NULL,PennController,15,_Trial_,Start,1741631077920,D,17,false,храбрая,NULL
1741631090,4afd246ba00a5b23d4ebde01ce573d58,PennController,15,0,experimental-trial,NULL,Text,item_goal,Print,NA,1741631078438,D,17,false,храбрая,NULL
1741631090,4afd246ba00a5b23d4ebde01ce573d58,PennController,15,0,experimental-trial,NULL,Scale,judgement,Choice,1,1741631081994,D,17,false,храбрая,NULL
1741631090,4afd246ba00a5b23d4ebde01ce573d58,PennController,15,0,experimental-trial,NULL,PennController,15,_Trial_,End,1741631082009,D,17,false,храбрая,NULL
1741631090,4afd246ba00a5b23d4ebde01ce573d58,PennController,5,0,experimental-trial,NULL,PennController,5,_Trial_,Start,1741631082014,D,1,true,pos,NULL
1741631090,4afd246ba00a5b23d4ebde01ce573d58,PennController,5,0,experimental-trial,NULL,Text,item_goal,Print,NA,1741631082532,D,1,true,pos,NULL
1741631090,4afd246ba00a5b23d4ebde01ce573d58,PennController,5,0,experimental-trial,NULL,Scale,judgement,Choice,3,1741631085704,D,1,true,pos,NULL
1741631090,4afd246ba00a5b23d4ebde01ce573d58,PennController,5,0,experimental-trial,NULL,PennController,5,_Trial_,End,1741631085714,D,1,true,pos,NULL
1741631090,4afd246ba00a5b23d4ebde01ce573d58,PennController,14,0,experimental-trial,NULL,PennController,14,_Trial_,Start,1741631085720,D,16,false,тупая,NULL
1741631090,4afd246ba00a5b23d4ebde01ce573d58,PennController,14,0,experimental-trial,NULL,Text,item_goal,Print,NA,1741631086238,D,16,false,тупая,NULL
1741631090,4afd246ba00a5b23d4ebde01ce573d58,PennController,14,0,experimental-trial,NULL,Scale,judgement,Choice,1,1741631089922,D,16,false,тупая,NULL
1741631090,4afd246ba00a5b23d4ebde01ce573d58,PennController,14,0,experimental-trial,NULL,PennController,14,_Trial_,End,1741631089939,D,16,false,тупая,NULL
#
# Results on Mon, 10 Mar 2025 18:24:50 GMT
# USER AGENT: Mozilla/5.0 (Windows NT 10.0; Win64; x64) AppleWebKit/537.36 (KHTML, like Gecko) Chrome/132.0.0.0 YaBrowser/25.2.0.0 Safari/537.36
# Design number was non-random = 1
#
# Columns below this comment are as follows:
# 1. Results reception time.
# 2. MD5 hash of participant's IP address.
# 3. Controller name.
# 4. Order number of item.
# 5. Inner element number.
# 6. Label.
# 7. Latin Square Group.
# 8. PennElementType.
# 9. PennElementName.
# 10. Parameter.
# 11. Value.
# 12. EventTime.
# 13. Comments.
1741631090,d8f3c64aacf281c9ba9f02dcde3b5ed2,PennController,0,0,welcome,NULL,PennController,0,_Trial_,Start,1741630861145,NULL
1741631090,d8f3c64aacf281c9ba9f02dcde3b5ed2,PennController,0,0,welcome,NULL,PennController,0,_Trial_,End,1741630879149,NULL
1741631090,d8f3c64aacf281c9ba9f02dcde3b5ed2,PennController,1,0,mock-trial,NULL,PennController,1,_Trial_,Start,1741630879151,NULL
1741631090,d8f3c64aacf281c9ba9f02dcde3b5ed2,PennController,1,0,mock-trial,NULL,Text,item_goal,Print,NA,1741630879154,NULL
1741631090,d8f3c64aacf281c9ba9f02dcde3b5ed2,PennController,1,0,mock-trial,NULL,Scale,judgement,Choice,5,1741630885986,NULL
1741631090,d8f3c64aacf281c9ba9f02dcde3b5ed2,PennController,1,0,mock-trial,NULL,PennController,1,_Trial_,End,1741630885988,NULL
# 13. group.
# 14. item.
# 15. filler.
# 16. adj.
# 17. Comments.
1741631090,d8f3c64aacf281c9ba9f02dcde3b5ed2,PennController,2,0,experimental-trial,NULL,PennController,2,_Trial_,Start,1741630885989,B,0,control,-,NULL
1741631090,d8f3c64aacf281c9ba9f02dcde3b5ed2,PennController,2,0,experimental-trial,NULL,Text,item_goal,Print,NA,1741630886500,B,0,control,-,NULL
1741631090,d8f3c64aacf281c9ba9f02dcde3b5ed2,PennController,2,0,experimental-trial,NULL,Scale,judgement,Choice,1,1741630894493,B,0,control,-,NULL
1741631090,d8f3c64aacf281c9ba9f02dcde3b5ed2,PennController,2,0,experimental-trial,NULL,PennController,2,_Trial_,End,1741630894495,B,0,control,-,NULL
1741631090,d8f3c64aacf281c9ba9f02dcde3b5ed2,PennController,13,0,experimental-trial,NULL,PennController,13,_Trial_,Start,1741630894497,B,9,false,горячая,NULL
1741631090,d8f3c64aacf281c9ba9f02dcde3b5ed2,PennController,13,0,experimental-trial,NULL,Text,item_goal,Print,NA,1741630894999,B,9,false,горячая,NULL
1741631090,d8f3c64aacf281c9ba9f02dcde3b5ed2,PennController,13,0,experimental-trial,NULL,Scale,judgement,Choice,2,1741630906913,B,9,false,горячая,NULL
1741631090,d8f3c64aacf281c9ba9f02dcde3b5ed2,PennController,13,0,experimental-trial,NULL,PennController,13,_Trial_,End,1741630906916,B,9,false,горячая,NULL
1741631090,d8f3c64aacf281c9ba9f02dcde3b5ed2,PennController,3,0,experimental-trial,NULL,PennController,3,_Trial_,Start,1741630906918,B,00,control,-,NULL
1741631090,d8f3c64aacf281c9ba9f02dcde3b5ed2,PennController,3,0,experimental-trial,NULL,Text,item_goal,Print,NA,1741630907424,B,00,control,-,NULL
1741631090,d8f3c64aacf281c9ba9f02dcde3b5ed2,PennController,3,0,experimental-trial,NULL,Scale,judgement,Choice,5,1741630914269,B,00,control,-,NULL
1741631090,d8f3c64aacf281c9ba9f02dcde3b5ed2,PennController,3,0,experimental-trial,NULL,PennController,3,_Trial_,End,1741630914271,B,00,control,-,NULL
1741631090,d8f3c64aacf281c9ba9f02dcde3b5ed2,PennController,15,0,experimental-trial,NULL,PennController,15,_Trial_,Start,1741630914272,B,11,false,тёмная,NULL
1741631090,d8f3c64aacf281c9ba9f02dcde3b5ed2,PennController,15,0,experimental-trial,NULL,Text,item_goal,Print,NA,1741630914778,B,11,false,тёмная,NULL
1741631090,d8f3c64aacf281c9ba9f02dcde3b5ed2,PennController,15,0,experimental-trial,NULL,Scale,judgement,Choice,5,1741630923191,B,11,false,тёмная,NULL
1741631090,d8f3c64aacf281c9ba9f02dcde3b5ed2,PennController,15,0,experimental-trial,NULL,PennController,15,_Trial_,End,1741630923193,B,11,false,тёмная,NULL
1741631090,d8f3c64aacf281c9ba9f02dcde3b5ed2,PennController,7,0,experimental-trial,NULL,PennController,7,_Trial_,Start,1741630923194,B,3,true,-,NULL
1741631090,d8f3c64aacf281c9ba9f02dcde3b5ed2,PennController,7,0,experimental-trial,NULL,Text,item_goal,Print,NA,1741630923698,B,3,true,-,NULL
1741631090,d8f3c64aacf281c9ba9f02dcde3b5ed2,PennController,7,0,experimental-trial,NULL,Scale,judgement,Choice,5,1741630935861,B,3,true,-,NULL
1741631090,d8f3c64aacf281c9ba9f02dcde3b5ed2,PennController,7,0,experimental-trial,NULL,PennController,7,_Trial_,End,1741630935863,B,3,true,-,NULL
1741631090,d8f3c64aacf281c9ba9f02dcde3b5ed2,PennController,4,0,experimental-trial,NULL,PennController,4,_Trial_,Start,1741630935864,B,000,control,-,NULL
1741631090,d8f3c64aacf281c9ba9f02dcde3b5ed2,PennController,4,0,experimental-trial,NULL,Text,item_goal,Print,NA,1741630936369,B,000,control,-,NULL
1741631090,d8f3c64aacf281c9ba9f02dcde3b5ed2,PennController,4,0,experimental-trial,NULL,Scale,judgement,Choice,5,1741630940703,B,000,control,-,NULL
1741631090,d8f3c64aacf281c9ba9f02dcde3b5ed2,PennController,4,0,experimental-trial,NULL,PennController,4,_Trial_,End,1741630940704,B,000,control,-,NULL
1741631090,d8f3c64aacf281c9ba9f02dcde3b5ed2,PennController,9,0,experimental-trial,NULL,PennController,9,_Trial_,Start,1741630940706,B,5,true,ind,NULL
1741631090,d8f3c64aacf281c9ba9f02dcde3b5ed2,PennController,9,0,experimental-trial,NULL,Text,item_goal,Print,NA,1741630941214,B,5,true,ind,NULL
1741631090,d8f3c64aacf281c9ba9f02dcde3b5ed2,PennController,9,0,experimental-trial,NULL,Scale,judgement,Choice,5,1741630948171,B,5,true,ind,NULL
1741631090,d8f3c64aacf281c9ba9f02dcde3b5ed2,PennController,9,0,experimental-trial,NULL,PennController,9,_Trial_,End,1741630948173,B,5,true,ind,NULL
1741631090,d8f3c64aacf281c9ba9f02dcde3b5ed2,PennController,12,0,experimental-trial,NULL,PennController,12,_Trial_,Start,1741630948173,B,8,false,чистая,NULL
1741631090,d8f3c64aacf281c9ba9f02dcde3b5ed2,PennController,12,0,experimental-trial,NULL,Text,item_goal,Print,NA,1741630948679,B,8,false,чистая,NULL
1741631090,d8f3c64aacf281c9ba9f02dcde3b5ed2,PennController,12,0,experimental-trial,NULL,Scale,judgement,Choice,4,1741630952433,B,8,false,чистая,NULL
1741631090,d8f3c64aacf281c9ba9f02dcde3b5ed2,PennController,12,0,experimental-trial,NULL,PennController,12,_Trial_,End,1741630952434,B,8,false,чистая,NULL
1741631090,d8f3c64aacf281c9ba9f02dcde3b5ed2,PennController,16,0,experimental-trial,NULL,PennController,16,_Trial_,Start,1741630952435,B,12,false,уродливая,NULL
1741631090,d8f3c64aacf281c9ba9f02dcde3b5ed2,PennController,16,0,experimental-trial,NULL,Text,item_goal,Print,NA,1741630952940,B,12,false,уродливая,NULL
1741631090,d8f3c64aacf281c9ba9f02dcde3b5ed2,PennController,16,0,experimental-trial,NULL,Scale,judgement,Choice,5,1741630957299,B,12,false,уродливая,NULL
1741631090,d8f3c64aacf281c9ba9f02dcde3b5ed2,PennController,16,0,experimental-trial,NULL,PennController,16,_Trial_,End,1741630957301,B,12,false,уродливая,NULL
1741631090,d8f3c64aacf281c9ba9f02dcde3b5ed2,PennController,14,0,experimental-trial,NULL,PennController,14,_Trial_,Start,1741630957301,B,10,false,скупая,NULL
1741631090,d8f3c64aacf281c9ba9f02dcde3b5ed2,PennController,14,0,experimental-trial,NULL,Text,item_goal,Print,NA,1741630957804,B,10,false,скупая,NULL
1741631090,d8f3c64aacf281c9ba9f02dcde3b5ed2,PennController,14,0,experimental-trial,NULL,Scale,judgement,Choice,5,1741630963035,B,10,false,скупая,NULL
1741631090,d8f3c64aacf281c9ba9f02dcde3b5ed2,PennController,14,0,experimental-trial,NULL,PennController,14,_Trial_,End,1741630963036,B,10,false,скупая,NULL
1741631090,d8f3c64aacf281c9ba9f02dcde3b5ed2,PennController,8,0,experimental-trial,NULL,PennController,8,_Trial_,Start,1741630963037,B,4,true,cf,NULL
1741631090,d8f3c64aacf281c9ba9f02dcde3b5ed2,PennController,8,0,experimental-trial,NULL,Text,item_goal,Print,NA,1741630963544,B,4,true,cf,NULL
1741631090,d8f3c64aacf281c9ba9f02dcde3b5ed2,PennController,8,0,experimental-trial,NULL,Scale,judgement,Choice,5,1741630969513,B,4,true,cf,NULL
1741631090,d8f3c64aacf281c9ba9f02dcde3b5ed2,PennController,8,0,experimental-trial,NULL,PennController,8,_Trial_,End,1741630969514,B,4,true,cf,NULL
1741631090,d8f3c64aacf281c9ba9f02dcde3b5ed2,PennController,5,0,experimental-trial,NULL,PennController,5,_Trial_,Start,1741630969515,B,1,true,neg,NULL
1741631090,d8f3c64aacf281c9ba9f02dcde3b5ed2,PennController,5,0,experimental-trial,NULL,Text,item_goal,Print,NA,1741630970019,B,1,true,neg,NULL
1741631090,d8f3c64aacf281c9ba9f02dcde3b5ed2,PennController,5,0,experimental-trial,NULL,Scale,judgement,Choice,1,1741630974287,B,1,true,neg,NULL
1741631090,d8f3c64aacf281c9ba9f02dcde3b5ed2,PennController,5,0,experimental-trial,NULL,PennController,5,_Trial_,End,1741630974288,B,1,true,neg,NULL
1741631090,d8f3c64aacf281c9ba9f02dcde3b5ed2,PennController,6,0,experimental-trial,NULL,PennController,6,_Trial_,Start,1741630974289,B,2,true,-,NULL
1741631090,d8f3c64aacf281c9ba9f02dcde3b5ed2,PennController,6,0,experimental-trial,NULL,Text,item_goal,Print,NA,1741630974799,B,2,true,-,NULL
1741631090,d8f3c64aacf281c9ba9f02dcde3b5ed2,PennController,6,0,experimental-trial,NULL,Scale,judgement,Choice,1,1741630979623,B,2,true,-,NULL
1741631090,d8f3c64aacf281c9ba9f02dcde3b5ed2,PennController,6,0,experimental-trial,NULL,PennController,6,_Trial_,End,1741630979624,B,2,true,-,NULL
1741631090,d8f3c64aacf281c9ba9f02dcde3b5ed2,PennController,11,0,experimental-trial,NULL,PennController,11,_Trial_,Start,1741630979625,B,7,true,-,NULL
1741631090,d8f3c64aacf281c9ba9f02dcde3b5ed2,PennController,11,0,experimental-trial,NULL,Text,item_goal,Print,NA,1741630980128,B,7,true,-,NULL
1741631090,d8f3c64aacf281c9ba9f02dcde3b5ed2,PennController,11,0,experimental-trial,NULL,Scale,judgement,Choice,4,1741630984451,B,7,true,-,NULL
1741631090,d8f3c64aacf281c9ba9f02dcde3b5ed2,PennController,11,0,experimental-trial,NULL,PennController,11,_Trial_,End,1741630984452,B,7,true,-,NULL
1741631090,d8f3c64aacf281c9ba9f02dcde3b5ed2,PennController,17,0,experimental-trial,NULL,PennController,17,_Trial_,Start,1741630984453,B,13,false,ленивая,NULL
1741631090,d8f3c64aacf281c9ba9f02dcde3b5ed2,PennController,17,0,experimental-trial,NULL,Text,item_goal,Print,NA,1741630984960,B,13,false,ленивая,NULL
1741631090,d8f3c64aacf281c9ba9f02dcde3b5ed2,PennController,17,0,experimental-trial,NULL,Scale,judgement,Choice,4,1741630991011,B,13,false,ленивая,NULL
1741631090,d8f3c64aacf281c9ba9f02dcde3b5ed2,PennController,17,0,experimental-trial,NULL,PennController,17,_Trial_,End,1741630991012,B,13,false,ленивая,NULL
1741631090,d8f3c64aacf281c9ba9f02dcde3b5ed2,PennController,10,0,experimental-trial,NULL,PennController,10,_Trial_,Start,1741630991013,B,6,true,-,NULL
1741631090,d8f3c64aacf281c9ba9f02dcde3b5ed2,PennController,10,0,experimental-trial,NULL,Text,item_goal,Print,NA,1741630991521,B,6,true,-,NULL
1741631090,d8f3c64aacf281c9ba9f02dcde3b5ed2,PennController,10,0,experimental-trial,NULL,Scale,judgement,Choice,5,1741630999772,B,6,true,-,NULL
1741631090,d8f3c64aacf281c9ba9f02dcde3b5ed2,PennController,10,0,experimental-trial,NULL,PennController,10,_Trial_,End,1741630999774,B,6,true,-,NULL
#
# Results on Mon, 10 Mar 2025 18:24:56 GMT
# USER AGENT: Mozilla/5.0 (Windows NT 10.0; Win64; x64) AppleWebKit/537.36 (KHTML, like Gecko) Chrome/133.0.0.0 Safari/537.36
# Design number was non-random = 3
#
# Columns below this comment are as follows:
# 1. Results reception time.
# 2. MD5 hash of participant's IP address.
# 3. Controller name.
# 4. Order number of item.
# 5. Inner element number.
# 6. Label.
# 7. Latin Square Group.
# 8. PennElementType.
# 9. PennElementName.
# 10. Parameter.
# 11. Value.
# 12. EventTime.
# 13. Comments.
1741631096,1de01ceecff0c64d256369417da363a6,PennController,0,0,welcome,NULL,PennController,0,_Trial_,Start,1741630970363,NULL
1741631096,1de01ceecff0c64d256369417da363a6,PennController,0,0,welcome,NULL,PennController,0,_Trial_,End,1741630981647,NULL
1741631096,1de01ceecff0c64d256369417da363a6,PennController,1,0,mock-trial,NULL,PennController,1,_Trial_,Start,1741630981650,NULL
1741631096,1de01ceecff0c64d256369417da363a6,PennController,1,0,mock-trial,NULL,Text,item_goal,Print,NA,1741630981654,NULL
1741631096,1de01ceecff0c64d256369417da363a6,PennController,1,0,mock-trial,NULL,Scale,judgement,Choice,5,1741630993730,NULL
1741631096,1de01ceecff0c64d256369417da363a6,PennController,1,0,mock-trial,NULL,PennController,1,_Trial_,End,1741630993733,NULL
# 13. group.
# 14. item.
# 15. filler.
# 16. adj.
# 17. Comments.
1741631096,1de01ceecff0c64d256369417da363a6,PennController,9,0,experimental-trial,NULL,PennController,9,_Trial_,Start,1741630993735,D,5,true,ind,NULL
1741631096,1de01ceecff0c64d256369417da363a6,PennController,9,0,experimental-trial,NULL,Text,item_goal,Print,NA,1741630994241,D,5,true,ind,NULL
